Time (s),Linear Acceleration x (m/s^2),Linear Acceleration y (m/s^2),Linear Acceleration z (m/s^2),Absolute acceleration (m/s^2)
-0.001064708333,0.120764299,-0.0781178144,0.1839358628,0.2334926347
0.008961291667,0.149251349,-0.08399444886,0.1582806194,0.233203317
0.01898729167,0.1606873333,-0.0930782811,0.146335909,0.2364279674
0.02901329167,0.1212361693,-0.1038029517,0.1289778646,0.205203682
0.03903929167,0.104241237,-0.1097793908,0.1404910505,0.2065320445
0.04906529167,0.1293105894,-0.1067786728,0.097950236,0.1942090684
0.05909129167,0.06800428748,-0.1041072262,0.08418353319,0.1501657914
0.06911729167,0.04186606407,-0.1050834188,0.0536376969,0.1251890361
0.07914229167,0.04326647222,-0.099654608,0.0487295258,0.1190697073
0.08916829167,0.05634084642,-0.1123308964,0.02722343009,0.1285831887
0.09919429167,0.04501245081,-0.1120129541,0.006093931608,0.1208724891
0.1092202917,0.0101840955,-0.1078435239,-0.01278201342,0.1090748427
0.1192462917,-0.01805561721,-0.09394048959,-0.07640790582,0.1224295265
0.1292722917,-0.04209585965,-0.09847010829,-0.07345268648,0.1298603896
0.1392982917,-0.03784551859,-0.09941406816,-0.0886835869,0.138492667
0.1493242917,-0.02296610892,-0.1167223747,-0.0868428286,0.147286224
0.1593502917,0.01600850701,-0.09186973471,-0.1025250793,0.1385918913
0.1693752917,0.04001366615,-0.0693635824,-0.1247176015,0.1482122808
0.1794012917,-0.01007767618,-0.06990496147,-0.1453208323,0.1615747737
0.1894272917,-0.001946538091,-0.05553425957,-0.1556517112,0.1652734044
0.1994532917,0.02698782384,-0.05995278116,-0.1338041747,0.1490846597
0.2094792917,0.02733047068,-0.06639951915,-0.1473463627,0.1639109556
0.2195052917,0.03964763045,-0.03025407851,-0.1514440183,0.159444456
0.2295312917,0.03129605234,-0.02632383596,-0.153835566,0.1591784175
0.2395572917,-0.03184218228,-0.01912097991,-0.1480222642,0.1526110322
0.2495832917,-0.103374095,0.01732259564,-0.158361311,0.1899067683
0.2596082917,-0.09661705256,0.01927527331,-0.1461885774,0.1762880914
0.2696342917,-0.09420799971,0.01796366975,-0.1529479222,0.1805295198
0.2796602917,-0.1126144499,0.01661091641,-0.1463534689,0.1854110965
0.2896862917,-0.1355139005,0.01811032522,-0.1312910779,0.1895503845
0.2997122917,-0.1228032231,0.05002183355,-0.1300537523,0.1857331255
0.3097382917,-0.1255163312,0.06154885177,-0.1192317804,0.1837357559
0.3197642917,-0.1457488668,0.05202406637,-0.07897600293,0.1737424666
0.3297902917,-0.1270664281,0.0877804479,-0.08067871213,0.1742421842
0.3398162917,-0.1230610853,0.05871010166,-0.07006956059,0.1532992175
0.3498422917,-0.1332872808,0.05674119797,-0.07672946613,0.1639282579
0.3598672917,-0.1587799716,0.05629962355,-0.03067213615,0.1712352386
0.3698932917,-0.1625713062,0.03335299317,-0.04124505322,0.1710058659
0.3799192917,-0.1627794671,0.01953006573,-0.04715191048,0.1705927344
0.3899452917,-0.1619444847,0.02857892431,-0.01782348275,0.165409938
0.3999712917,-0.1171016032,0.01430112004,-0.01720137555,0.1192191042
0.4099972917,-0.1090844858,-0.006746553965,0.007355760746,0.1095401673
0.4200232917,-0.1009165102,-0.008321172595,0.004374923296,0.1013534602
0.4300492917,-0.1301712996,-0.01679342262,0.02429053981,0.1334788995
0.4400752917,-0.1499974537,-0.01164842103,0.03155862886,0.1537233518
0.4501012917,-0.1291071063,-0.02360170126,0.06453105966,0.1462530098
0.4601262917,-0.1429439574,-0.002031213082,0.06999351025,0.159173466
0.4701522917,-0.09780637622,-0.02470719047,0.07545126479,0.1259739094
0.4801782917,-0.1287030637,-0.03769678004,0.09603587586,0.1649497357
0.4902042917,-0.1175389749,-0.04767622299,0.06782419324,0.1438351628
0.5002302917,-0.1533765596,-0.04254828796,0.1082425233,0.1924868039
0.5102562917,-0.1312822706,-0.03929372773,0.1182003132,0.1809705657
0.5202822917,-0.1087453473,-0.03225927148,0.1245223411,0.1684399732
0.5303082917,-0.1106076854,-0.01922663178,0.1225775389,0.1662196634
0.5403342917,-0.08957232714,-0.03316573609,0.1168835203,0.1509467626
0.5503592917,-0.08574766338,0.0004201955348,0.1347151891,0.1596903896
0.5603852917,-0.07279491127,-0.01075657446,0.08381746095,0.111535509
0.5704112917,-0.06358086884,-0.02045056365,0.08199433565,0.1057535981
0.5804372917,-0.02636626482,-0.02824862972,0.05248811603,0.06517796656
0.5904632917,-0.02462671816,-0.03169636734,0.05485503238,0.06797212316
0.6004892917,-0.03021841049,-0.02084612779,0.06818083685,0.07743603741
0.6105152917,-0.04390498817,-0.009399654977,0.03963237287,0.05988928518
0.6205412917,-0.07030750573,-0.001262450404,0.06748039523,0.09745944225
0.6305672917,-0.08473726451,0.01110510506,0.02491619188,0.08901990774
0.6405922917,-0.06547829032,-0.01370148808,0.05393120885,0.08592853174
0.650618375,0.01800416172,-0.03984391417,0.03265903831,0.05457380433
0.660644375,0.04206369996,-0.05218201429,0.04112463713,0.07863557241
0.670670375,0.01763344824,-0.03817954078,0.06240735093,0.07525485554
0.680696375,0.02104880691,-0.02167508025,0.05870487571,0.06602366097
0.690722375,-0.000380653739,-0.002151300274,0.07112670064,0.07116024546
0.700748375,0.004835647345,0.01377768461,0.08746966839,0.0886800483
0.710774375,-0.01179909647,0.007643772662,0.1160251125,0.1168737467
0.720800375,0.04012534797,0.007672022022,0.1186411933,0.1254776324
0.730825375,0.04086443603,0.01063104205,0.1184224892,0.1257251253
0.740851375,0.01196691155,-0.005809099115,0.123742286,0.1244552367
0.750877375,0.02797015607,-0.001676433273,0.09796076098,0.1018894045
0.760903375,0.03319756687,-0.002384640723,0.1284761918,0.1327173568
0.770929375,0.0008484309912,-0.0001866358146,0.1192691843,0.1192723479
0.780955375,-0.02072662532,-0.02428831056,0.1418476228,0.1453969158
0.790981375,0.01338486135,-0.003265962303,0.1515188992,0.1521440036
0.801007375,-0.02704921961,-0.02494181,0.1258928919,0.1311593473
0.811033375,-0.03036809921,-0.006107087843,0.1183008671,0.1222890556
0.821059375,-0.03129020512,-0.0004332421347,0.1093850327,0.1137732394
0.831084375,-0.04283845603,-0.03282480687,0.1181628728,0.1299040637
0.841110375,-0.02684749067,-0.01679053556,0.1025285876,0.1073071345
0.851136375,-0.05935099304,-0.03185690995,0.1089851014,0.128121643
0.861162375,-0.05039715171,-0.01571165118,0.1015345609,0.1144377383
0.871188375,-0.06659160018,-0.009986021072,0.1054545708,0.1251192565
0.881214375,-0.07859534919,-0.008553526327,0.09220240474,0.1214564744
0.891240375,-0.08491326571,-0.02144046072,0.0845098261,0.1217040129
0.901266375,-0.079257254,-0.03081533812,0.09725673795,0.1291904426
0.911292375,-0.07195408165,-0.04783344001,0.1012328629,0.1330921499
0.921317375,-0.08022204459,-0.03902797177,0.116965363,0.1471042323
0.931343375,-0.1015105873,-0.04693972964,0.1250906539,0.1677957367
0.941369375,-0.1010971892,-0.03059625026,0.1274704889,0.1655460593
0.951395375,-0.1093645674,-0.03365138389,0.1457593918,0.1853073785
0.961421375,-0.08185751081,-0.02616248935,0.1654715069,0.1864562885
0.971447375,-0.04911017954,-0.02886086974,0.17356758,0.182675845
0.981473375,-0.01980393469,0.01218939811,0.1592301889,0.1609193286
0.991499375,-0.0496159637,0.02014109977,0.1689681602,0.1772502381
1.001525375,-0.06461056352,-0.003558469266,0.2096998644,0.2194566489
1.011551375,-0.04906340182,0.009833810739,0.2541714478,0.2590502771
1.021576375,-0.01554657698,0.01518309943,0.2153283942,0.2164221336
1.031602375,0.007338255644,0.003763962351,0.2284670877,0.2286158953
1.041628375,0.0456439501,0.01595094848,0.2319017057,0.2368885899
1.051654375,0.04877396464,0.01344198134,0.210498594,0.216493059
1.061680375,-0.01785271883,0.01416849788,0.233704987,0.234813728
1.071706375,-0.0006560575962,0.04721878801,0.2174743223,0.2225424122
1.081732375,-0.004253849387,0.03800434358,0.2135893957,0.2169858413
1.091758375,-0.02491966367,0.05377658654,0.187375195,0.1965257607
1.101784375,-0.005912119746,0.0616775636,0.1957273579,0.2053004472
1.111809375,-0.008303630948,0.06240411669,0.1801047854,0.1907903503
1.121835375,-0.05215540946,0.1029964014,0.1722788902,0.2073848149
1.131861375,-0.08657562912,0.08476887602,0.1878394639,0.2235279985
1.141887375,-0.03955349028,0.0848596175,0.1321201766,0.1619301526
1.151913375,-0.05030885875,0.05673739728,0.1262788081,0.1472971517
1.161939375,-0.09099612415,0.05242836479,0.1219798804,0.1609599927
1.171965375,-0.1149118209,0.03658990212,0.08965184927,0.1502697627
1.181991375,-0.0789479363,0.03773931853,0.0679598121,0.1107951663
1.192017375,-0.04986680925,0.03619283963,0.04457917213,0.07605210644
1.202042375,-0.02751407325,0.04557740148,0.0346634821,0.06352858211
1.212068375,-0.02506642878,0.04630823035,0.05187885443,0.07392018389
1.222094375,-0.05195134163,0.05447657134,0.03955058495,0.08503462525
1.232120375,-0.08106813669,0.04769610353,0.05360964853,0.1082633617
1.242146375,-0.1056919312,0.05572122429,0.03791217685,0.1253513954
1.252172375,-0.08016415715,0.05232614815,0.03532186031,0.1020389714
1.262198375,-0.0887607336,0.05076040998,0.01707620859,0.1036662141
1.272224375,-0.1055931133,0.01566147476,0.03496280473,0.1123280245
1.282250375,-0.07647105575,-0.003972963765,0.03452433664,0.08399724179
1.292275375,-0.066507985,0.01339578833,0.03402847448,0.07589925091
1.302301375,-0.07809482753,0.0003937734291,0.02258079568,0.08129483058
1.312327375,-0.0675330019,0.001473973431,0.002663991451,0.06760159609
1.322353375,-0.08137219191,0.004462229535,0.04201107502,0.09168574334
1.332379375,-0.1094259632,0.01585260563,0.04643040061,0.1199213435
1.342405375,-0.1473562664,0.01601753365,0.04027558487,0.1535986763
1.352431375,-0.1908227134,0.01088280123,0.05415574193,0.1986569598
1.362457375,-0.2121305519,0.00681577038,0.03969325701,0.2159198473
1.372483375,-0.1731173444,0.02504819278,0.01253526092,0.1753686393
1.382509375,-0.1100030833,0.0346517694,-0.02544587653,0.1181055295
1.392534375,-0.1666386294,-0.004700649753,0.009480675459,0.1669742859
1.402560375,-0.1816659737,-0.003903272264,0.02037520766,0.1828466861
1.412586375,-0.1814227295,0.00554940965,-0.002032492161,0.1815189625
1.422612375,-0.1968973857,0.03732920945,0.01262415687,0.2008019415
1.432638375,-0.2400656247,0.03467270974,0.02184174417,0.2435380109
1.442664375,-0.218123948,0.03999130055,0.001536666546,0.2217650156
1.452690375,-0.2282220894,0.02092323795,0.0324076263,0.2314591934
1.462716375,-0.2598713136,-0.00787473768,0.04366583705,0.2636319716
1.472742375,-0.2371806085,-0.00568173945,0.006182882376,0.2373292044
1.482767375,-0.2589550549,-0.02428341351,-0.01281473955,0.2604066477
1.492793375,-0.2383705169,-0.04520193715,-0.006794446316,0.2427135821
1.502819375,-0.2332027477,-0.05193690632,-0.007128961869,0.2390225635
1.512845375,-0.2648648357,-0.08144893661,0.00675232809,0.2771874897
1.522871375,-0.2926326782,-0.08075293522,0.0136193347,0.3038756442
1.532897375,-0.2933173871,-0.06520643134,0.02308484394,0.3013633659
1.542923375,-0.2558297181,-0.06523760431,0.004434564896,0.2640538866
1.552949375,-0.2107131869,-0.04512610607,0.005627396889,0.2155645615
1.562975375,-0.1965828055,-0.04997436147,0.03495118339,0.2058247348
1.573000375,-0.1915875292,-0.0702581333,0.0430869627,0.2085628754
1.583026375,-0.1720724469,-0.0595584961,0.03828756809,0.1860700925
1.593052375,-0.2000092739,-0.06872133885,0.02916943828,0.2134881453
1.603078375,-0.1908291453,-0.0866428721,-0.01013320645,0.2098223817
1.613104375,-0.1508195722,-0.09031364445,-0.02910510063,0.178185871
1.623130375,-0.1371604764,-0.1192122287,-0.03771103263,0.1855981513
1.633156375,-0.1408717042,-0.1358307831,-0.04298054338,0.2003550992
1.643182375,-0.09997686267,-0.1175773838,-0.05592744827,0.1641575271
1.653208625,-0.09890039027,-0.1204428849,-0.05289862711,0.1645783718
1.663233625,-0.09213048398,-0.1031808079,-0.05893289885,0.1503575464
1.673259625,-0.04045513093,-0.08440941844,-0.03881379923,0.1013315279
1.683285625,-0.03293502688,-0.08296508309,-0.02985471368,0.09412345582
1.693311625,-0.01778196752,-0.08049543846,-0.03664333105,0.09021334543
1.703337625,0.01758316219,-0.07763969488,-0.02398060083,0.08313939518
1.713363625,0.01972207367,-0.08232916184,-0.02041496873,0.0870851424
1.723389625,-0.01721127927,-0.08201739561,-0.02655218801,0.0879096127
1.733415625,0.01740131378,-0.08988858841,-0.02208142519,0.09418255352
1.743441625,0.05934280694,-0.08144148141,-0.009394118395,0.1012054005
1.753466625,0.1041178608,-0.09825423639,-0.014538517,0.1438950742
1.763492625,0.112956512,-0.09654162347,0.02257025242,0.1502959579
1.773518625,0.1020333284,-0.08768382266,0.02583182931,0.136991008
1.783544625,0.08586928546,-0.06786004398,0.02649841189,0.1126085502
1.793570625,0.09544468582,-0.06310596529,0.02363207024,0.116835464
1.803596625,0.09259299874,-0.07359886687,0.0351464073,0.1233917605
1.813622625,0.1253596258,-0.07179511048,0.04019142151,0.1499497384
1.823648625,0.1325259733,-0.08091121204,0.05104385376,0.1634479515
1.833674625,0.1437280691,-0.0688662767,0.0839940834,0.1801536232
1.843700625,0.1781231457,-0.05506140254,0.04216195146,0.1911471769
1.853725625,0.1667093807,-0.06253947973,0.05155493695,0.1853675152
1.863751625,0.1338825274,-0.04055438742,0.08063314039,0.1614648346
1.873777625,0.06227927864,0.03865108218,0.2033462433,0.2161534394
1.883803625,-0.002594994307,-0.01540770561,0.2523085431,0.2527918755
1.893829625,0.5688492984,-0.1197761196,-0.1618099988,0.6034221729
1.903855625,0.1700054562,-0.140384485,-0.0880286622,0.2373998823
1.913881625,-0.2028065819,-0.04533817727,0.2127322304,0.2973904199
1.923907625,0.1439333063,-0.1144021995,0.009476052504,0.184104469
1.933932625,0.2098589087,-0.00915787261,0.05120406747,0.2162093539
1.943958625,-0.007735866308,0.06364478622,0.0982437114,0.1173129544
1.953984625,0.09409105539,-0.106270294,0.08636567753,0.1661491268
1.964010625,0.4265824485,0.02218210693,0.009046775512,0.4272545791
1.974036625,0.03325779319,0.09801369656,0.08640547514,0.1348283044
1.984062625,-0.2901669073,-0.1298525167,0.06979587436,0.325468853
1.994088625,0.0740538168,-0.07496645752,0.02208263118,0.1076642008
2.004114625,0.2293260437,-0.02451331872,-0.0005215716362,0.2306330617
2.014140625,0.03325720847,-0.09167732477,-0.05180982074,0.1104311157
2.024165625,0.2051051223,-0.009517988004,0.07277446428,0.2178412862
2.034191625,0.2632024723,-0.01253292203,0.01372809291,0.2638580605
2.044217625,-0.02777953684,-0.05305292051,-0.005844913311,0.06017040846
2.054243625,0.03433251143,0.08147952486,0.06953856032,0.1124866467
2.064269625,0.1970634466,0.06537190754,0.05423409462,0.2145899003
2.074295625,0.07163833201,0.006778786741,0.04563985705,0.08521149638
2.084321625,-0.05453931928,0.04849826843,0.02787599763,0.07812612003
2.094347625,0.08842861176,0.04338900793,0.07194178423,0.1219747749
2.104373625,0.1686588424,0.02682402872,0.0741298306,0.1861734821
2.114399625,-0.06290434599,-0.01873619657,0.03157262564,0.07283428105
2.124424625,-0.1043540883,-0.004898431823,0.05487730661,0.1180054624
2.134450625,0.04847751081,-0.00171104148,0.06534731269,0.08138346265
2.144476625,-0.05360318005,0.009193723351,0.03694619855,0.06574836156
2.154502625,-0.188901903,0.03065647658,0.1116572424,0.2215650882
2.164528625,-0.1445765001,0.01457787607,0.072784971,0.1625193245
2.174554625,-0.1707480526,0.01815352153,0.07192658147,0.1861662723
2.184580625,-0.2045537299,0.06198516369,0.06653548518,0.2238556672
2.194606625,-0.1126086026,0.03713157356,0.04530771693,0.126934
2.204632625,-0.06017720461,-0.01290619366,0.09965407809,0.1171272858
2.214657625,-0.05684253752,-0.0475159362,0.1074940431,0.1305519344
2.224683625,-0.08972493947,0.008652161546,0.1078647749,0.1405711006
2.234709625,-0.09072715223,-0.002420783825,0.07038763085,0.114855104
2.244735625,-0.1126752609,-0.02476544335,0.078811148,0.1397148476
2.254761625,-0.1389678508,0.007130679488,0.1301403093,0.1905240412
2.264787625,-0.1440028882,0.03512159318,0.1134792531,0.1866759197
2.274813625,-0.1368996906,0.02333313134,0.147990671,0.2029462959
2.284839625,-0.1464055091,-0.006428319253,0.1673285826,0.2224292043
2.294865625,-0.2127860248,0.004474289417,0.1804251945,0.2790182116
2.304890625,-0.1727372754,0.00868552722,0.1513972771,0.2298580871
2.314916625,-0.08553014696,-0.0182241632,0.1623105387,0.1843698379
2.324942625,-0.09382149875,-0.02671943665,0.1859426272,0.2099787192
2.334968625,-0.1666245961,-0.02562936947,0.2101699805,0.2694291026
2.344994625,-0.1461716205,0.01477777775,0.2007653189,0.248779498
2.355020625,-0.1038576597,0.01350962631,0.2291746008,0.2519720642
2.365046625,-0.1612287855,0.01607045095,0.2146208811,0.2689146766
2.375072625,-0.1735377592,0.01426358823,0.2082649759,0.2714647381
2.385098625,-0.1463207245,0.00251236584,0.231679548,0.2740282456
2.395123625,-0.1402045369,0.0008041383326,0.2649969828,0.299802201
2.405149625,-0.1448647678,0.0001474960148,0.2328876193,0.2742671434
2.415175625,-0.1573029649,-0.01197962925,0.2342172396,0.2823923682
2.425201625,-0.1191475439,-0.0002516129985,0.2206295164,0.2507460549
2.435227625,-0.1092774439,0.006346129328,0.2155774856,0.2417756923
2.445253625,-0.1242480701,-0.01213995259,0.2388073039,0.2694696454
2.455279625,-0.1565837574,-0.01916823272,0.2623844651,0.3061560089
2.465305625,-0.1127202845,0.01185194068,0.2580154073,0.2818124934
2.475331625,-0.1142054772,0.07141124077,0.2727211547,0.3041698285
2.485356625,-0.1242141563,0.06907235451,0.267338208,0.3027703159
2.495382625,-0.06715585649,0.05068216693,0.2739163621,0.2865462695
2.505408625,-0.03538793385,0.06814217214,0.2927466989,0.3026487918
2.515434625,-0.105408926,0.05607779481,0.2781228125,0.3026682335
2.525460625,-0.115100686,0.04932166602,0.2808253956,0.3074795887
2.535486625,-0.1026320833,0.03523945112,0.2562998525,0.2783249501
2.545512625,-0.1742821097,0.008586343825,0.2684339944,0.3201636901
2.555538625,-0.1793224096,0.004050000831,0.2660377872,0.3208567177
2.565564625,-0.06954795241,-0.008774441443,0.2489990373,0.2586782347
2.575589625,-0.08400811672,-0.04440996833,0.25111805,0.268495594
2.585615625,-0.1510060984,-0.03370294902,0.2509730025,0.2948324584
2.595641625,-0.06456553996,-0.01550319795,0.2584364069,0.2668303478
2.605667625,-0.02301814914,0.02633677293,0.256576974,0.2589501967
2.615693625,-0.0929876858,0.02280732047,0.237221539,0.2558142728
2.625719625,-0.1045680964,-0.04452749737,0.2897529427,0.3112458074
2.635745625,-0.03127909541,-0.04490084209,0.3292590888,0.333775396
2.645771625,0.0459041512,-0.05828906558,0.2500901278,0.2608637159
2.655797292,-0.002045356035,-0.09470446486,0.2060313396,0.2267642653
2.665822292,0.02245623171,-0.08554619025,0.2046829716,0.2229743301
2.675848292,0.003848052621,-0.1009925971,0.1877178784,0.2131954832
2.685874292,-0.09244740307,-0.1407062646,0.1827710974,0.2484955719
2.695900292,-0.1249766332,-0.09982172873,0.1734939051,0.2359738788
2.705926292,-0.0934297353,-0.06689850591,0.1585998774,0.1958531251
2.715952292,-0.1349309331,-0.04284218363,0.1137423778,0.1816015912
2.725978292,-0.1951379585,-0.025137509,0.07203767857,0.2095236129
2.736004292,-0.2002507639,-0.03444799393,0.0654525443,0.2134738117
2.746030292,-0.18021411,-0.03237332873,0.07627575874,0.1983510757
2.756055292,-0.1859204078,-0.03737722971,0.08452033281,0.2076225951
2.766081292,-0.1706650221,-0.007967562228,0.0308756558,0.1736183687
2.776107292,-0.1181418228,-0.01792325087,-0.004972472191,0.1195970681
2.786133292,-0.1241492522,0.01336538281,0.02247437635,0.1268730384
2.796159292,-0.1870360565,0.01814617597,0.003727033529,0.1879512195
2.806185292,-0.2213381624,0.01494325396,0.01735572377,0.222519896
2.816211292,-0.1956109983,0.02594983343,0.01434672832,0.1978456093
2.826237292,-0.2427875036,0.01017696921,-0.01433740932,0.2434233019
2.836263292,-0.2621254152,0.02412031274,-0.03855423767,0.26604126
2.846288292,-0.2576651591,0.03735077105,-0.04556618214,0.2643155146
2.856314292,-0.2749126911,0.04031516321,-0.02488574982,0.278965232
2.866340292,-0.3179043442,0.01033795036,-0.03682108641,0.320196561
2.876366292,-0.3023682922,0.02221485134,-0.05963809133,0.3089931807
2.886392292,-0.2756079251,0.006481126919,-0.1049622353,0.2949894984
2.896418292,-0.2864264435,-0.03018932059,-0.146341811,0.323059481
2.906444292,-0.2803313059,-0.07246757682,-0.171829824,0.3366937468
2.916470292,-0.2684041554,-0.05896949876,-0.1619023848,0.3189523077
2.926496292,-0.2918052971,-0.05349548165,-0.1924716282,0.3536345934
2.936521292,-0.3267336398,-0.06135194678,-0.2309112604,0.4047702348
2.946547292,-0.2396715224,-0.0634488314,-0.2371747978,0.343103596
2.956573292,-0.1554622614,-0.03089716259,-0.2105430146,0.2635365447
2.966599292,-0.09101717412,-0.03417324789,-0.2174825084,0.2382237988
2.976625292,-0.03032658398,-0.0399752938,-0.2135625168,0.2193779259
2.986651292,-0.01036068141,-0.04070959445,-0.2161095822,0.2201544147
2.996677292,-0.0005853062868,-0.07054373324,-0.2088052404,0.2204005202
3.006703292,0.03807472944,-0.0559160462,-0.2148676336,0.2252651531
3.016729292,0.04828806102,-0.03137656119,-0.2104447814,0.2181816478
3.026754292,0.005505153537,-0.05209927619,-0.1977540394,0.2045759061
3.036780292,0.02932612538,-0.03227615532,-0.182574631,0.1877105956
3.046806292,0.008094300628,-0.01372469421,-0.1903455806,0.1910113216
3.056832292,-0.02003431499,-0.02400303952,-0.173475194,0.176270141
3.066858292,-0.02181830049,-0.01343262579,-0.1697411438,0.171664002
3.076884292,-0.04620118976,-0.02071120329,-0.1714158046,0.1787369071
3.086910292,0.02910568535,0.006198779494,-0.1983808243,0.2006003919
3.096936292,0.09317772031,0.04932046004,-0.1930364509,0.2199492367
3.106962292,0.09871854186,0.03804224085,-0.1401436893,0.1755927568
3.116987292,0.1271535516,0.04405975666,-0.1329293947,0.1891547298
3.127013292,0.2141074955,0.08840343218,-0.1498219824,0.2758691952
3.137039292,0.2785987759,0.1190674005,-0.1440952377,0.335496291
3.147065292,0.3128523499,0.1269940688,-0.1374095678,0.3645346015
3.157091292,0.2999446213,0.1252877416,-0.08820411522,0.3368141327
3.167117292,0.313225987,0.104541053,-0.06131741166,0.3358558852
3.177143292,0.2898271841,0.1056928449,-0.07128461201,0.3166263887
3.187169292,0.2644765806,0.1130357783,-0.06578230899,0.2950462015
3.197195292,0.2615775311,0.1487536413,-0.05153032383,0.3052962903
3.207220292,0.2594240016,0.1725612011,-0.008872546759,0.3117000205
3.217246292,0.2852564156,0.1952437931,0.03031198421,0.3470016971
3.227272292,0.2718727237,0.203135305,0.0863692224,0.3501976194
3.237298292,0.2306486839,0.1995167556,0.1039985776,0.3222133692
3.247324292,0.2009600312,0.2027129168,0.1208350138,0.3099654195
3.257350292,0.1420826626,0.1879947075,0.1329657022,0.2705723028
3.267376292,0.1354571825,0.1918091021,0.135577087,0.2711466881
3.277402292,0.1033881283,0.1701013871,0.1334977806,0.2396773756
3.287428292,0.06338498712,0.1627623275,0.1437748468,0.2262309404
3.297453292,0.07937595248,0.1466300787,0.1620134453,0.2324850066
3.307479292,0.05944104016,0.1232325184,0.1672701287,0.2160990208
3.317505292,0.06105954945,0.1280558866,0.1119952297,0.1807470889
3.327531292,0.1164192331,0.1020001089,0.136891468,0.2066318805
3.337557292,0.1488782966,0.06686276481,0.1453968279,0.2185763347
3.347583292,0.17236013,0.05549519286,0.1653241388,0.2451933965
3.357609292,0.2025808793,0.02760857888,0.1495050816,0.2532844561
3.367635292,0.1379019034,0.02894700654,0.141579802,0.1997491039
3.377660292,0.09702167988,0.02518662561,0.173074075,0.2000055197
3.387686292,0.0955148524,-0.007265055813,0.1535455624,0.1809754343
3.397712292,0.07290600836,-0.008549762182,0.1473930856,0.1646605786
3.407738292,0.0354733032,-0.06654270284,0.139201173,0.1583137805
3.417764292,0.0260376513,-0.08287196618,0.1278002536,0.1545271073
3.427790292,0.02692584336,-0.09873520643,0.06951988578,0.1237200733
3.437816292,-0.01634296775,-0.1386030576,0.07717855057,0.1594817508
3.447842292,-0.0004952591658,-0.1465803043,0.08357193271,0.16873144
3.457868292,-0.0159295696,-0.1472212688,0.1066041152,0.1824617509
3.467893292,-0.0559093219,-0.1498570109,0.1415376838,0.2135787722
3.477919292,-0.09289997756,-0.1380226484,0.1528403699,0.2259221901
3.487945292,-0.1075840902,-0.13606818,0.1545278946,0.232309613
3.497971292,-0.08888878763,-0.1345459671,0.1446788263,0.2166467092
3.507997292,-0.06974968135,-0.1423894221,0.1403822923,0.2117709932
3.518023292,-0.03668718517,-0.1770159389,0.1371020043,0.2268866496
3.528049292,-0.08161894441,-0.2399412252,0.1726659576,0.3066707951
3.538075292,-0.09152763605,-0.2309839121,0.1571731567,0.2939970697
3.548101292,-0.09111248374,-0.2248318372,0.1413938423,0.280790061
3.558126292,-0.04550069332,-0.2037518939,0.1423235496,0.2526680433
3.568152292,-0.05437969029,-0.197952662,0.1301882748,0.2430872148
3.578178292,-0.02164697707,-0.1708145647,0.1381603686,0.220758906
3.588204292,0.03817237794,-0.1704571171,0.1296198889,0.2175179873
3.598230292,-0.003196088076,-0.1488604626,0.1630765239,0.2208248287
3.608256292,-0.0471051693,-0.1518595361,0.1229739618,0.2010045048
3.618282292,-0.07380238652,-0.1593461283,0.1388900646,0.2238937938
3.628308292,-0.08074361622,-0.1670488847,0.1128839882,0.21718116
3.638334292,-0.05716238022,-0.1789533772,0.09046459397,0.2085082533
3.648359292,-0.05394465744,-0.202719166,0.0836245211,0.2258276928
3.658385042,-0.1185394335,-0.1885565153,0.09368759751,0.2416247559
3.668411042,-0.1623280621,-0.1746087864,0.1245094498,0.2689632523
3.678437042,-0.24923172,-0.1480999957,0.1059632603,0.308671786
3.688463042,-0.3225131196,-0.1251938207,0.1238838069,0.3674716352
3.698489042,-0.2604788393,-0.1000068662,0.1550938869,0.3192251756
3.708515042,-0.2155108273,-0.08491823584,0.1432509454,0.2723542855
3.718541042,-0.2352083427,-0.08730495963,0.1534671915,0.294104232
3.728567042,-0.2947253966,-0.08033913508,0.1538928505,0.3420532787
3.738592042,-0.3295490742,-0.076892238,0.1927932433,0.3894666137
3.748618042,-0.305405336,-0.07996816579,0.1742446876,0.3605947004
3.758644042,-0.2995242065,-0.06050731648,0.2459350598,0.3922498429
3.768670042,-0.2640146506,-0.03529499967,0.2377419412,0.3570303955
3.778696042,-0.2280583674,-0.001160416491,0.2402702773,0.3312729564
3.788722042,-0.2474933428,0.004497020468,0.2159516891,0.3284940029
3.798748042,-0.2564530313,0.01512550436,0.2108564436,0.332351287
3.808774042,-0.2502935743,0.026888275,0.1887504601,0.3146372338
3.818800042,-0.2194401562,0.0171130826,0.1715654933,0.2790726756
3.828825042,-0.19606942,0.01212354384,0.1480409753,0.245980341
3.838851042,-0.1794346762,0.01898269325,0.1724905411,0.249619976
3.848877042,-0.1334615278,0.02817440663,0.1660948384,0.2149262011
3.858903042,-0.1085956585,0.05155047845,0.1472785075,0.1901089889
3.868929042,-0.08687500656,0.09749767978,0.1399905471,0.1914429879
3.878955042,-0.08969804227,0.1092527029,0.1127752483,0.1808318238
3.888981042,-0.07485722423,0.1129230001,0.1199030133,0.1809197075
3.899007042,-0.09159604847,0.0886769357,0.1262893148,0.1794503443
3.909033042,-0.07899120569,0.08711719092,0.1102176762,0.1611736693
3.919058042,-0.02461443901,0.09966728915,0.0473998781,0.1130760257
3.929084042,-0.1196235073,0.1095847882,0.0266340673,0.1644018942
3.939110042,-0.1058036131,0.1283225562,0.00707162261,0.1664664855
3.949136042,-0.09871561825,0.1415757821,0.02635457953,0.1745939266
3.959162042,-0.1568831348,0.1342141376,0.05842305819,0.2145670209
3.969188042,-0.1554733711,0.1882117854,0.05044509888,0.2492796689
3.979214042,-0.1256116408,0.1893426735,0.04143453956,0.2309669963
3.989240042,-0.06146417677,0.2110291558,-0.01553956032,0.2203466078
3.999266042,-0.04640818119,0.1831457943,-0.01762584686,0.1897545039
4.009291042,-0.02281408131,0.1613990857,0.003724676371,0.1630460683
4.019317042,-0.03678892672,0.1512433492,-0.003628772898,0.1556956768
4.029343042,-0.1059971559,0.1423624153,-0.006981575489,0.1776265654
4.039369042,-0.1237019402,0.1471275672,-0.03278416872,0.1949961352
4.049395042,-0.1057790548,0.1733184521,0.0001052498817,0.203048037
4.059421042,-0.1062591112,0.1612718722,-0.0128358078,0.193557158
4.069447042,-0.1395151502,0.1279398194,0.01403215726,0.1898156367
4.079473042,-0.08339766741,0.1100111233,0.01472794851,0.1388327434
4.089499042,-0.1098972487,0.08669710502,0.02369757732,0.141969604
4.099524042,-0.1266647243,0.07713215657,0.01394208273,0.1489553747
4.109550042,-0.07381583512,0.07425627664,-0.007148805857,0.1049470226
4.119576042,-0.09400627077,0.04676858895,0.02267552057,0.1074181506
4.129602042,-0.1047651476,0.04033102378,0.02257845679,0.1145081409
4.139628042,-0.1574257565,0.03775046479,0.02317602396,0.163539275
4.149654042,-0.1814899725,0.04296011467,0.02578740874,0.188279505
4.159680042,-0.2312924623,0.0323303517,0.02627389709,0.235014409
4.169706042,-0.2536960691,0.05480957028,0.009637389975,0.2597280573
4.179732042,-0.2385219598,0.01901503567,0.01157163978,0.2395583431
4.189757042,-0.1832189941,0.0279546975,0.0217995894,0.1866169527
4.199783042,-0.1231277436,-0.02283184223,0.03400741537,0.1297622386
4.209809042,-0.1332375795,-0.03058353256,0.01568574985,0.1375995923
4.219835042,-0.108021462,-0.02037838709,-0.01052497904,0.1104295707
4.229861042,-0.1332440114,-0.0124213133,0.01943615397,0.13522581
4.239887042,-0.1687980062,-0.02427106127,-0.002625381555,0.1705542258
4.249913042,-0.1779997694,-0.01729584463,0.01857660413,0.1798003181
4.259939042,-0.1737277937,0.002310125269,0.05125084519,0.1811445062
4.269964042,-0.143262046,0.01736783847,0.0356902349,0.1486588326
4.279990042,-0.1403314215,0.01864742853,0.0199179554,0.1429592928
4.290016042,-0.1486297899,0.005090439767,0.03710527022,0.1532759868
4.300042042,-0.14689726,-0.008941415995,0.06359665632,0.1603224519
4.310068042,-0.08094826877,-0.04747548077,0.04652161717,0.1047416076
4.320094042,-0.05331491232,-0.06689437632,0.06008482774,0.104534798
4.330120042,-0.05756876171,-0.1047914966,0.05310207367,0.1308252663
4.340146042,-0.02934308231,-0.1012881008,0.06509586414,0.1239264595
4.350172042,-0.06952573299,-0.1123307503,0.08471446037,0.1569349062
4.360197042,-0.1032758617,-0.104932451,0.09346306443,0.1743905597
4.370223042,-0.1157631755,-0.08119012423,0.1080775952,0.1779711091
4.380249042,-0.1053510386,-0.07713361837,0.08892443737,0.1579746561
4.390275042,-0.1389468008,-0.0786455987,0.1136195954,0.1959611087
4.400301042,-0.1599669564,-0.05989690371,0.09610483646,0.1959928718
4.410327042,-0.1672134107,-0.06795210108,0.09122009078,0.2022348084
4.420353042,-0.1617345697,-0.09160419803,0.1021543658,0.2120964747
4.430379042,-0.1631466722,-0.1229574434,0.08204814831,0.2201528292
4.440405042,-0.1208520073,-0.1138061855,0.1008633006,0.1942433034
4.450430042,-0.0893407774,-0.1124486813,0.07475312551,0.1619089565
4.460456042,-0.1611141801,-0.09211794902,0.0900529774,0.2062838682
4.470482042,-0.1803573668,-0.06846106466,0.09713044723,0.2159861591
4.480508042,-0.1593407196,-0.06710853059,0.1307671491,0.2167788437
4.490534042,-0.1502997547,-0.0348701629,0.1407974537,0.2088776376
4.500560042,-0.06581801355,-0.03813005872,0.1190224135,0.1412524237
4.510586042,-0.08641716957,-0.04142945979,0.1444051584,0.1733123686
4.520612042,-0.06975026608,-0.04994793937,0.1424182928,0.1662614398
4.530638042,0.001559452415,-0.03834446881,0.1316313493,0.137111423
4.540663042,0.03214974582,-0.02815339319,0.09862381697,0.1074843104
4.550689042,0.04657131851,0.001117549092,0.1220769807,0.1306634066
4.560715042,0.06922343194,0.00432971701,0.1299005918,0.1472575761
4.570741042,0.07210844815,0.0006364694238,0.107081248,0.1290985168
4.580767042,0.02335728765,0.04014124509,0.108771075,0.118270999
4.590793042,-0.0364737618,0.03551094465,0.1449875593,0.1536644228
4.600819042,-0.08492262125,0.02106594656,0.1407740557,0.1657496922
4.610845042,-0.06151972532,0.01398803819,0.1517913795,0.1643805484
4.620871042,-0.03646732986,0.005997379459,0.1522614956,0.1566824743
4.630896042,0.00085544765,-0.01576175451,0.1470294253,0.147874327
4.640922042,0.05164377809,-0.01741655309,0.1487578531,0.1584276333
4.650948042,0.03492951214,-0.04588288195,0.1448215258,0.1558800308
4.660973625,0.04889032423,-0.07218278088,0.1043131669,0.1359479844
4.670999625,0.05402534902,-0.06887698442,0.1048276945,0.1365709444
4.681025625,0.04926922381,-0.06684438262,0.07874445319,0.1144391402
4.691051625,0.05992986739,-0.05286734451,0.07199208856,0.107561173
4.701077625,0.08121431708,-0.03892933656,0.04879033685,0.1024292708
4.711103625,0.08184464693,-0.0385827063,0.03533587536,0.09713802316
4.721128625,0.008828710914,-0.02744222559,0.03505172809,0.04538331768
4.731154625,-0.01853333473,-0.06867419567,0.01098457932,0.07197423588
4.741180625,-0.05232965648,-0.09314735133,0.002957530813,0.1068810975
4.751206625,-0.009191823006,-0.09666953132,0.000516903,0.09710692603
4.761232625,0.006249504089,-0.106070173,-0.009782391787,0.1067034821
4.771258625,0.0164499718,-0.09492004439,-0.003384386692,0.09639434876
4.781284625,-0.01048171878,-0.09829885796,-0.006761720181,0.09908709686
4.791310625,-0.0008858531713,-0.07724676199,0.02688080152,0.08179501491
4.801336625,0.02022668839,-0.04688988212,0.008557993965,0.05177855955
4.811361625,0.0000286513567,-0.0434201809,0.01392690738,0.04559903156
4.821387625,-0.03858168304,-0.03559470601,-0.006709067831,0.0529201375
4.831413625,-0.08243638515,-0.04826331999,-0.004089542627,0.0956129176
4.841439625,-0.08482965052,-0.04661144502,-0.009238582458,0.09723192799
4.851465625,-0.07375210047,-0.03166026078,-0.02415599903,0.08381680455
4.861491625,-0.1045914853,-0.03486289043,-0.02812275013,0.1137791237
4.871517625,-0.05086492896,-0.02575987201,-0.05368094802,0.07831000054
4.881543625,-0.03501838982,-0.01008315794,-0.05040299892,0.0621966237
4.891568625,-0.03444711685,-0.02457383741,-0.06866266569,0.08065382201
4.901594625,-0.06845627725,-0.05273413762,-0.05921005687,0.1047520024
4.911620625,-0.04140237987,-0.03326210551,-0.04434760412,0.06918984545
4.921646625,-0.04339861929,-0.02757181451,-0.02640487472,0.05780019481
4.931672625,-0.05093684971,-0.009392967224,-0.01907597462,0.05519676892
4.941698625,-0.01012737751,0.0012796266,-0.02482727766,0.02684389941
4.951724625,0.01420288682,-0.01417836506,-0.02746086359,0.03401245447
4.961750625,0.01128629565,-0.005279085562,-0.00144192338,0.01254306011
4.971776625,-0.02097513199,-0.02238979273,-0.01417249957,0.03379524707
4.981801625,-0.01058053672,-0.02519133992,-0.0196875751,0.03367717295
4.991827625,-0.04928384185,-0.02664539628,0.008274997864,0.0566334689
5.001853625,-0.03889392436,-0.02262050193,0.02609144568,0.0520114218
5.011879625,-0.001711480021,-0.03061982185,0.06793762922,0.0745387424
5.021905625,0.007024844885,-0.01669602994,0.07169972777,0.07395239566
5.031931625,-0.03153871179,0.0002414169163,0.09805895766,0.1030063484
5.041957625,-0.005589353442,0.01175432872,0.07844036143,0.07951286322
5.051983625,0.02290646732,0.01105014123,0.06096307039,0.06605533906
5.062009625,-0.02987576365,0.004376567826,0.05535792947,0.06305724348
5.072034625,-0.03879919946,-0.0346305367,0.04211398602,0.06691965159
5.082060625,-0.05160869479,-0.05015003376,0.02486821731,0.07613745134
5.092086625,-0.1677034074,-0.1127861753,0.05369851707,0.2091140477
5.102112625,-0.2555122143,-0.01469131205,0.1764490696,0.3108642798
5.112138625,0.1554470587,0.1188174686,0.008184914198,0.1958274029
5.122164625,0.273913402,-0.02313034259,-0.08227383256,0.2869364878
5.132190625,-0.03153520346,0.003505771235,0.08693640232,0.0925456511
5.142216625,-0.09763271391,-0.01467892326,0.06465968013,0.1180190317
5.152242625,-0.1613164937,-0.06680242885,-0.0399750928,0.1791189094
5.162267625,-0.02455596685,0.01384986117,-0.008255117331,0.02937619997
5.172293625,-0.1916495097,-0.09397513434,-0.02467760721,0.2148716936
5.182319625,-0.1870617843,0.01326835558,0.04767936587,0.1934980163
5.192345625,-0.02036936045,0.1239895866,0.08843916415,0.1536548541
5.202371625,-0.01696511149,0.05267128006,0.1638226287,0.1729159692
5.212397625,0.0241560173,0.07341376595,0.142130628,0.1617844542
5.222423625,-0.05237292588,0.0525956317,0.1172062866,0.1387318905
5.232449625,-0.08966529787,-0.0348213752,0.1583741748,0.1852964464
5.242475625,0.03289994359,-0.0236640472,0.1482596703,0.153698807
5.252500625,-0.1030203384,-0.06735133622,0.2019593386,0.2365099724
5.262526625,-0.05902413368,-0.04505349096,0.184563872,0.1989409165
5.272552625,0.113248288,0.1031077543,0.2335915875,0.2793231346
5.282578625,0.03509732723,0.1448707246,0.2666868281,0.3055179431
5.292604625,-0.04932886541,0.1216684613,0.2463501938,0.2791504423
5.302630625,-0.04677830994,0.1529200017,0.3111420393,0.3498315392
5.312656625,-0.01292877853,0.151271964,0.2807377239,0.3191614482
5.322682625,0.03394776464,0.0743765831,0.2259422966,0.240279521
5.332707625,0.1148141724,0.05933999296,0.2201640415,0.255295386
5.342733625,0.1358056766,0.03487505995,0.1959764493,0.2409693347
5.352759625,0.1356764531,0.0416660893,0.1812601769,0.2302160174
5.362785625,0.1356939948,0.1148777974,0.1887972561,0.2593340943
5.372811625,0.1322722042,0.09566673383,0.2053133015,0.2623006133
5.382837625,0.1451723313,0.1043120614,0.2284788004,0.2901009724
5.392863625,0.2538761634,0.160373484,0.1689482796,0.344552292
5.402889625,0.1569252348,0.1348792949,0.1788066852,0.2734772096
5.412915625,0.04575972497,0.1103747104,0.1924096477,0.2264906216
5.422940625,0.013942101,0.02068627954,0.1545185208,0.1565192564
5.432966625,0.0617711556,-0.00868359033,0.1533268766,0.1655300924
5.442992625,0.1289012843,-0.01008991878,0.1054849398,0.1668664738
5.453018625,0.04829449296,-0.07319471464,0.1103217566,0.1409280465
5.463044625,0.03909097552,-0.09655806877,0.1205695868,0.159337975
5.473070625,0.01147340655,-0.07888756379,0.0998014462,0.1277310277
5.483096625,-0.02512256205,-0.07686735079,0.1307250309,0.1537165132
5.493122625,-0.08851281166,-0.05434698243,0.1068777649,0.1490334491
5.503148625,-0.1203029537,-0.0478241941,0.1105614924,0.1702462858
5.513173625,-0.1134681433,-0.09149434347,0.0970602715,0.1751197611
5.523199625,-0.01861519575,-0.06316144075,0.1000107948,0.1197416059
5.533225625,-0.01237270832,-0.04893088929,0.09665213585,0.1090364673
5.543251625,-0.01765859127,-0.09337751236,0.08464898983,0.1272660094
5.553277625,-0.01591144323,-0.0998670812,0.08771291256,0.1338662129
5.563303625,-0.01522088706,-0.08797863197,0.07078171492,0.1139384318
5.573329625,-0.04297528088,-0.0918937083,0.08671769818,0.1334589359
5.583355625,-0.05830551088,-0.0887376371,0.09323383531,0.1413026853
5.593381625,-0.09190185785,-0.1047973073,0.05541874051,0.1499988796
5.603406625,-0.1599324578,-0.08774967693,0.05327283064,0.1900431302
5.613432625,-0.1495308459,-0.03369549382,0.04953994989,0.1610871404
5.623458625,-0.1461616802,-0.03648359243,0.04249288559,0.1565245495
5.633484625,-0.194141593,-0.02681313828,0.03632524252,0.1993224166
5.643510625,-0.1791054779,-0.02075670194,0.01359713355,0.180816191
5.653536625,-0.1654177308,-0.0430202679,-0.02099967202,0.1722055613
5.6635635,-0.160421285,-0.06066606838,-0.03664446395,0.1753800937
5.6735895,-0.1917951053,-0.09553476948,-0.02263106346,0.2154632675
5.6836145,-0.2092507982,-0.1449486753,-0.04037849586,0.257733269
5.6936405,-0.219234919,-0.09734817378,-0.03470203718,0.2423733649
5.7036665,-0.2114107597,-0.1103162017,-0.04114685655,0.2419860275
5.7136925,-0.2154120094,-0.1291419704,-0.02783389768,0.2526948914
5.7237185,-0.1781056041,-0.116357143,-0.04820329467,0.2181379117
5.7337445,-0.1666959321,-0.1378492054,-0.0583224678,0.2240344783
5.7437705,-0.2090297735,-0.1703656081,-0.08821809372,0.2837257808
5.7537965,-0.2606513321,-0.1547221501,-0.09051488003,0.3163400136
5.7638225,-0.2913182241,-0.1662245735,-0.09634808064,0.3489697253
5.7738475,-0.260468899,-0.1642711649,-0.1093136966,0.3267698689
5.7838735,-0.2788724256,-0.1351948984,-0.08619731426,0.3216791371
5.7938995,-0.2665997046,-0.1079206706,-0.0840501984,0.299644305
5.8039255,-0.2184104615,-0.09068647753,-0.05366455754,0.2425016529
5.8139515,-0.2152886331,-0.0618382524,-0.06931989273,0.2344747588
5.8239775,-0.2277414483,-0.0802965235,-0.04667596539,0.2459519154
5.8340035,-0.2125094515,-0.07867903747,-0.02725853166,0.2282404116
5.8440295,-0.2086613989,-0.08305235278,-0.04009905377,0.228134186
5.8540555,-0.2363994205,-0.07727047976,-0.008766127434,0.2488619257
5.8640805,-0.2135502559,-0.05925330799,-0.0009285378456,0.2216202348
5.8741065,-0.1811303687,-0.03396943588,0.02623528719,0.1861462418
5.8841325,-0.1547021234,-0.00829303287,0.01047937989,0.1552782624
5.8941585,-0.10851906,0.03257812746,0.03325660547,0.1180835407
5.9041845,-0.07985776305,0.05058181409,0.03679301977,0.1014372148
5.9142105,-0.07949114263,0.0757191769,0.03330340147,0.1147229361
5.9242365,-0.06265934765,0.09189111359,0.03271285096,0.1159323131
5.9342625,-0.07621143937,0.08387509257,0.02480039874,0.1160098031
5.9442885,-0.07284987509,0.0947474419,0.02484131098,0.1220707695
5.9543135,-0.0623026675,0.09909411583,0.01877891779,0.1185492046
5.9643395,-0.07077235937,0.1079592257,0.01327668786,0.1297697642
5.9743655,-0.06157235026,0.09343598451,0.005501078758,0.112034367
5.9843915,-0.04204323471,0.1078942485,-0.005509246588,0.1159273662
5.9944175,-0.02924777269,0.10232145,-0.01438648939,0.1073875338
6.0044435,-0.02812101424,0.06804167312,-0.01393861094,0.07493160613
6.0144695,-0.0006461173296,0.06485062826,-0.008166239653,0.06536596151
6.0244955,0.0242969352,0.05571018767,0.005489366055,0.06102539807
6.0345205,0.001943029761,0.06432076089,0.02337249041,0.06846319416
6.0445465,0.03423310876,0.08942194406,0.03229652921,0.1010507576
6.0545725,0.05725242734,0.1070046677,0.05460365692,0.1330766647
6.0645985,0.08761175573,0.1493488147,0.05731791615,0.1823903279
6.0746245,0.1289047927,0.157557063,0.07162720403,0.2158034523
6.0846505,0.09805371344,0.137855016,0.07308551788,0.1842824709
6.0946765,0.0636095202,0.1318876401,0.08864028096,0.1711654757
6.1047025,0.02362976789,0.1321207978,0.09216732144,0.1628161119
6.1147285,0.04442305148,0.1012991374,0.0760149912,0.1342132692
6.1247535,0.1062339681,0.1306377247,0.07618220329,0.1848123351
6.1347795,0.07987413526,0.1126113435,0.08059100389,0.1598627601
6.1448055,0.02477523744,0.1046944328,0.0872123909,0.1384945406
6.1548315,-0.03990023017,0.1305431825,0.07617401719,0.1563202858
6.1648575,-0.1214829218,0.09141789112,0.0735930562,0.1689120157
6.1748835,-0.1838961017,0.09346416079,0.08546990236,0.2232900127
6.1849095,-0.05739860773,0.1419907517,0.1151503873,0.1916131139
6.1949355,0.05219400108,0.1104116575,0.08272288045,0.1475060094
6.2049615,0.04682742655,0.05661274195,0.1089850831,0.1314365199
6.2149865,0.1775278991,0.1151753476,0.09893605828,0.2336019249
6.2250125,0.1959647548,0.03863131128,-0.002559929285,0.1997526385
6.2350385,0.1286258805,-0.01120885659,-0.08571318308,0.1549742087
6.2450645,0.01369242489,-0.01797510836,-0.1130921857,0.1153274879
6.2550905,-0.195842548,-0.1358217564,-0.1579298047,0.2859085104
6.2651165,-0.2130327773,-0.1503018744,-0.1991234207,0.3280605955
6.2751425,-0.2221345532,-0.1215207826,-0.1883680522,0.3155845107
6.2851685,-0.2143220884,-0.1337166126,-0.1969845092,0.3203388626
6.2951935,-0.1283715266,-0.10193166,-0.1828751413,0.2455862974
6.3052195,-0.1045359367,-0.07218870118,-0.1521305088,0.1981985428
6.3152455,-0.1226038331,-0.07825635687,-0.1385006765,0.2008437071
6.3252715,-0.1562416953,-0.0829928939,-0.1510277514,0.2326127027
6.3352975,-0.165316574,-0.1264120881,-0.1521597723,0.2578026027
6.3453235,-0.1621199012,-0.1477702127,-0.1785073078,0.2828139973
6.3553495,-0.1255479062,-0.160392451,-0.1687845576,0.2645302288
6.3653755,-0.08493723929,-0.2055577699,-0.1236300377,0.2544655529
6.3754015,-0.05047725856,-0.2034045327,-0.1151293373,0.2391152899
6.3854265,-0.1561405385,-0.1889445512,-0.08404904723,0.2591218893
6.3954525,-0.2643549585,-0.1736284276,-0.05645252824,0.3212744355
6.4054785,-0.2489340967,-0.1507329969,-0.05292079171,0.2957857857
6.4155045,-0.2383155531,-0.1200273671,-0.03651001453,0.2693210962
6.4255305,-0.2645315444,-0.1591911405,-0.00887374361,0.3088648581
6.4355565,-0.1966067791,-0.154002833,0.02434194962,0.2509255441
6.4455825,-0.1105761105,-0.1019656103,0.02697087605,0.1528119434
6.4556085,-0.1842750013,-0.1200899323,0.01909232855,0.220779041
6.4656345,-0.1487139899,-0.1061674195,0.01565416574,0.183391452
6.4756595,-0.06645477533,-0.06496373534,0.03885709603,0.1007293303
6.4856855,-0.03254852593,-0.07895751111,0.05698814233,0.1026710449
6.4957115,-0.06331832886,-0.07389444362,0.0888437732,0.1317680371
6.5057375,-0.03764963686,-0.07759620622,0.07209616899,0.1124122945
6.5157635,-0.05435045421,-0.09959862091,0.07137812178,0.1340473552
6.5257895,-0.133179692,-0.09520151474,0.1149597589,0.2000397584
6.5358155,-0.09615395308,-0.08852337319,0.1341760484,0.1873103902
6.5458415,-0.005988718271,-0.08549034934,0.1833640051,0.2024026258
6.5558675,0.03342268467,-0.04255994584,0.2525143468,0.2582477884
6.5658925,0.03031664371,-0.01637103438,0.2961731672,0.2981705127
6.5759185,0.06582561493,0.06523526542,0.3224306738,0.3354850084
6.5859445,0.0782755065,0.1045864786,0.3610304832,0.383938011
6.5959705,0.1010562587,0.1118947672,0.357211082,0.3877274345
6.6059965,0.1398461026,0.09613206256,0.3281363869,0.3694208904
6.6160225,0.1105205619,0.07285035018,0.3376077068,0.3626305721
6.6260485,0.0523056829,0.05807703093,0.3124611712,0.3220882014
6.6360745,0.09767013609,0.01815984383,0.2877637017,0.3044292749
6.6460995,0.1183377045,0.03824703958,0.2701132965,0.2973681915
6.656125042,0.1376498884,0.02326534018,0.239936986,0.2775941733
6.666151042,0.1663930464,0.01363548763,0.2673499024,0.3151960385
6.676177042,0.1701452047,-0.008591533229,0.2833981705,0.3306625593
6.686203042,0.1671736497,-0.01527175784,0.2566167533,0.3066470509
6.696229042,0.1434058875,0.01839471918,0.2705822432,0.306787165
6.706255042,0.1495834708,0.02406713963,0.2686175787,0.3083988417
6.716281042,0.1708907247,-0.005641978383,0.2569792807,0.3086645791
6.726307042,0.216756869,-0.01418501627,0.2585860956,0.3377151518
6.736332042,0.2228075677,-0.0014399134,0.2574599218,0.3404862654
6.746358042,0.213302334,0.0003635140881,0.2005396163,0.2927697996
6.756384042,0.08824968696,-0.008915432431,0.196186949,0.2153063193
6.766410042,0.01603949726,-0.007216012292,0.1548132205,0.1558090804
6.776436042,0.02841395974,0.03810952038,0.1315155653,0.1398428853
6.786462042,-0.005757753253,0.004881730713,0.1642178822,0.1643912888
6.796488042,-0.0303406173,0.01916706327,0.1851509142,0.1885968992
6.806514042,-0.02602712631,0.03404095463,0.1729735029,0.1782022183
6.816540042,-0.002996698022,0.06627296347,0.1816285515,0.1933649829
6.826565042,0.007469817996,0.06012998834,0.201739465,0.2106424112
6.836591042,0.03725553453,0.06335962482,0.1870255315,0.2009501589
6.846617042,0.05957026362,0.0304408605,0.1571170235,0.1707659842
6.856643042,0.0218621546,-0.002300185002,0.1322920847,0.1341060786
6.866669042,-0.08244749486,-0.02684248399,0.1448133123,0.168786859
6.876695042,-0.07747677684,-0.001048880853,0.09272045891,0.1208339133
6.886721042,-0.09405304849,0.01892831415,0.07314399004,0.1206412048
6.896747042,-0.1606253529,0.02856927641,0.09843202829,0.1905402103
6.906772042,-0.1375265121,0.0294232988,0.04033526758,0.1463085981
6.916798042,-0.1358232182,0.0225789867,0.01678735614,0.1387067863
6.926824042,-0.2004250109,0.005389817208,0.01856256167,0.20135492
6.936850042,-0.248702547,0.0102571857,0.02935536603,0.2506389918
6.946876042,-0.2914339989,0.02067432929,0.02731819153,0.2934407729
6.956902042,-0.2584188652,0.03491080105,-0.03309640547,0.2628582241
6.966928042,-0.2514437217,0.02544192966,0.002399688167,0.2527389868
6.976954042,-0.2591345644,0.01488986157,0.01427072366,0.2599540036
6.986980042,-0.2808926386,0.005991568789,0.02863264561,0.2824117591
6.997005042,-0.3168635398,0.02510805365,0.01755334596,0.3183410705
7.007031042,-0.291761443,0.03235772397,-0.04706306934,0.2972989984
7.017057042,-0.2377653301,0.03011235662,-0.03226610541,0.2418268136
7.027083042,-0.2101138473,0.01845041391,-0.01093662759,0.2112057206
7.037109042,-0.1953320861,-0.008274577595,-0.03440735579,0.1985118602
7.047135042,-0.2251563942,-0.02271153577,-0.0005145458411,0.2262995371
7.057161042,-0.2337266582,0.016084265,-0.003897735681,0.2343118578
7.067187042,-0.1885610104,-0.0102601824,-0.02528686881,0.1905254621
7.077213042,-0.2023727185,0.01306023125,-0.02335846622,0.2041345261
7.087238042,-0.2569032669,0.02343041439,0.004332786798,0.2580059029
7.097264042,-0.256346612,-0.003630499654,0.02051670115,0.2571919537
7.107290042,-0.2417268187,0.01930790808,0.005187649727,0.2425521839
7.117316042,-0.2763522756,0.06649179552,0.04013060133,0.2870578413
7.127342042,-0.2719130695,0.0493419851,0.03620478988,0.2787151515
7.137368042,-0.2406842601,0.05618063271,0.04551940441,0.2513109483
7.147394042,-0.2417899686,0.03872534182,0.06119228125,0.2524015378
7.157420042,-0.2352592134,0.01052016422,0.09742046912,0.2548496011
7.167445042,-0.1913162184,0.01981694475,0.1197883987,0.2265918515
7.177471042,-0.2326952094,0.02059535533,0.08895135283,0.2499671424
7.187497042,-0.243097406,0.04151654676,0.09144109726,0.2630236619
7.197523042,-0.2115961164,0.04410108916,0.1243796325,0.2493754509
7.207549042,-0.1712620229,0.02349871717,0.1639114881,0.238222262
7.217575042,-0.1333282113,0.01972766507,0.1470340757,0.1994608034
7.227601042,-0.1343175602,0.03979187395,0.1659346247,0.2171609999
7.237627042,-0.1656937194,0.03727402635,0.1687389493,0.2394088442
7.247653042,-0.1571076679,0.03736451201,0.1366880123,0.2115715926
7.257678042,-0.1660375357,0.03768819194,0.1303192341,0.214410741
7.267704042,-0.1020742589,0.02578589212,0.1334685445,0.1699938791
7.277730042,-0.07942506909,0.01326641869,0.159852351,0.1789891437
7.287756042,-0.06920238197,-0.002847009301,0.1402068758,0.1563810831
7.297782042,-0.04700985968,0.01505654376,0.1344368525,0.1432127569
7.307808042,-0.08214460909,0.009251720421,0.1352309044,0.1584952007
7.317834042,-0.1059047699,-0.008280388266,0.131981022,0.169420705
7.327860042,-0.09044882476,-0.003130745441,0.1410944923,0.1676259145
7.337886042,-0.05912529051,-0.0202809944,0.1342123195,0.1480542651
7.347911042,-0.06701961637,-0.02726253334,0.1325049233,0.1509716179
7.357937042,-0.03763677299,-0.03499149263,0.1148650432,0.1258368363
7.367963042,-0.02861744285,-0.01411971018,0.1007276452,0.1056616428
7.377989042,-0.05791900992,-0.04477022991,0.08234516859,0.1101803612
7.388015042,-0.05624027431,-0.05562638976,0.1057761312,0.1320827529
7.398041042,-0.0234239459,-0.0604459938,0.1026396847,0.1213972993
7.408067042,-0.03042774081,-0.09123001277,0.1017064691,0.1399748852
7.418093042,-0.02934600592,-0.07871426694,0.1127974677,0.1406427837
7.428118042,-0.08259250581,-0.07919783168,0.1330674255,0.1755014481
7.438144042,-0.2485610443,-0.1290286805,0.172066015,0.3286908984
7.448170042,-0.06470938146,-0.04358357403,0.09853845675,0.1256847621
7.458196042,-0.0684305495,-0.1321909279,0.1143586834,0.1877101222
7.468222042,0.1598622912,-0.0853866709,0.04611116091,0.1870108951
7.478248042,0.2083807325,-0.1443295648,0.052807374,0.2589250311
7.488274042,-0.005202852488,-0.2030904276,0.08556230664,0.2204397872
7.498300042,0.08313395798,-0.0818269591,0.06752830585,0.1347849335
7.508326042,-0.1171214837,-0.1534122276,0.1349993455,0.2355367844
7.518351042,-0.08026823759,-0.06508722123,0.09186911345,0.1382724497
7.528377042,0.04504577994,0.008233683631,0.1040523537,0.1136829281
7.538403042,0.03654275894,-0.01320780035,0.1190072107,0.1251899973
7.548429042,0.06215941072,-0.02891422559,0.135908012,0.1522196193
7.558455042,0.03418866992,-0.09881699435,0.1036559399,0.1472352451
7.568481042,0.03765840769,-0.1971745072,0.06324349363,0.2104653925
7.578507042,0.06551220417,-0.2058982971,0.08425837755,0.2319168641
7.588533042,0.05789795995,-0.2231114767,0.04552876909,0.2349548332
7.598559042,0.09907639146,-0.2215904332,0.06147997339,0.2503961633
7.608584042,0.163445465,-0.1310815283,0.06205998978,0.2185136825
7.618610042,0.1085108739,-0.1001741697,0.07792235294,0.1669771455
7.628636042,0.09669131219,-0.05978277337,0.07904264292,0.1384591248
7.638662042,0.09834782839,-0.03096089724,0.07073959669,0.1250398458
7.648688042,0.04942592919,-0.06954082612,0.1060778292,0.1361299189
7.65871375,0.09241348922,-0.09876162853,0.06783119163,0.1513115422
7.66873975,0.1234247822,-0.09147698455,0.07211137176,0.169710829
7.67876575,0.1044312716,-0.1126207722,0.05519886693,0.1632061387
7.68879075,0.08527228475,-0.1238972006,0.02235388717,0.152057802
7.69881675,0.08571258008,-0.067941503,0.04408917546,0.1179260345
7.70884275,0.1165238982,-0.07410077725,0.007539399862,0.1382952877
7.71886875,0.06021287262,-0.05418285839,0.0478688248,0.09408930099
7.72889475,0.07006367683,-0.008301840238,0.05786990245,0.09125110943
7.73892075,0.008814677596,0.02564069845,0.05043459216,0.05726073737
7.74894675,0.04156785607,0.04275871463,0.07771649441,0.09795941935
7.75897275,0.1413833356,0.09344471879,0.04599538604,0.1756039253
7.76899875,0.1852169877,0.06218126468,0.05517551461,0.2030176831
7.77902375,0.1928125209,0.04631912079,0.04709230542,0.203813185
7.78904975,0.2122346324,0.01823702708,0.04296534061,0.217306578
7.79907575,0.1771671259,0.008155221306,0.04972821197,0.184194444
7.80910175,0.0352183646,0.02882710207,0.04109191099,0.06131786173
7.81912775,0.005228580236,0.05806405742,0.02885253746,0.06504799561
7.82915375,0.0005402827263,0.1025684583,0.035307827,0.1084768325
7.83917975,-0.01328662813,0.1382105633,0.03083351931,0.142230096
7.84920575,-0.02008167744,0.1142533879,0.02621306777,0.1189295393
7.85923175,0.005459545255,0.1097107226,0.01984077215,0.1116239469
7.86925675,0.003606562614,0.0915529618,-0.01601786256,0.09301356906
7.87928275,-0.01022034824,0.03379500613,-0.02335027099,0.04232957728
7.88930875,0.2169428104,0.08016167209,-0.01976945439,0.2321226141
7.89933475,-0.1308431447,-0.07517801709,-0.04615089457,0.1578023062
7.90936075,-0.04454116523,-0.007900794335,-0.06757859191,0.08132160866
7.91938675,0.1498319775,0.06055997796,-0.01125004292,0.1619990613
7.92941275,-0.1603902948,-0.02043163329,-0.06025672674,0.1725496202
7.93943875,-0.03292801023,0.03026328787,-0.07785684586,0.08978757652
7.94946375,-0.02835256398,0.02260592043,-0.01675694148,0.03994609631
7.95948975,-0.1550488633,-0.02375679865,-0.04231980801,0.1624669248
7.96951575,-0.2235267752,0.02975012161,-0.03276895682,0.227866394
7.97954175,-0.0450013411,-0.08782554455,-0.1026864533,0.1424182385
7.98956775,-0.183072229,-0.1235879195,0.02138441881,0.2219159937
7.99959375,-0.06833640933,-0.03215146344,-0.04304955879,0.0869301211
8.00961975,0.08308191776,-0.09804421172,-0.1714017713,0.2142284755
8.01964575,-0.07341354668,-0.06980665516,0.00604132494,0.1014840655
8.02967075,-0.1412991357,-0.08823247422,-0.05506206036,0.1754486983
8.03969675,-0.1629227239,-0.09437585134,-0.06905329624,0.2005466853
8.04972275,-0.0929414928,-0.006344959885,-0.0422753783,0.1023014526
8.05974875,-0.1813163102,-0.0760360229,-0.008720537424,0.1968073395
8.06977475,-0.172992214,-0.1493598148,0.008619965315,0.2287115305
8.07980075,-0.03041136861,-0.02515296757,-0.05050122301,0.06409287514
8.08982675,-0.1169951838,-0.1137377731,-0.0260575227,0.1652366441
8.09985275,-0.1332387489,-0.1914038535,-0.01178212127,0.2335097808
8.10987875,-0.1134014851,-0.1811802162,0.008506538467,0.2139124325
8.11990375,-0.1465534437,-0.2194559072,-0.02701296687,0.2652706305
8.12992975,-0.05712320387,-0.1810884149,-0.01477357507,0.1904582184
8.13995575,-0.05241619527,-0.1387691917,0.04580241879,0.1552488571
8.14998175,-0.1789780086,-0.1554572182,0.02197383642,0.2380817586
8.16000775,-0.2057173258,-0.1405045356,0.03307769895,0.2513071365
8.17003375,-0.07483500481,-0.06882688109,0.07580916007,0.1268244703
8.18005975,-0.1856906122,-0.1342345663,0.05450307568,0.2355217771
8.19008575,-0.2422185695,-0.1422782519,0.068607711,0.2891711507
8.20011175,-0.1340871799,-0.1443265681,0.07528407097,0.2108962338
8.21013675,-0.1304426104,-0.1483159041,0.069227525,0.2092972342
8.22016275,-0.1886212367,-0.1232116511,0.09554117401,0.2447186095
8.23018875,-0.1281031394,-0.1163840767,0.06185770352,0.1837989203
8.24021475,-0.1298561347,-0.100636721,0.09846828103,0.1915368572
8.25024075,-0.1635004288,-0.01014448062,0.1016643691,0.192797678
8.26026675,-0.1586700439,0.00484127529,0.09778883457,0.1864464453
8.27029275,-0.1706053805,-0.0007540350035,0.1361547645,0.2182770815
8.28031875,-0.1542495489,0.04466154478,0.1460716331,0.2170817793
8.29034375,-0.1712707937,0.03258704446,0.1482596612,0.2288591868
8.30036975,-0.1140493566,0.05650482427,0.1520697069,0.1983059421
8.31039575,-0.1382539058,0.04376162175,0.1656434333,0.2201521497
8.32042175,-0.1370119572,0.05482627138,0.162533884,0.219534644
8.33044775,-0.09909802616,0.1009703046,0.1651510978,0.2174633447
8.34047375,-0.1090833163,0.1248216089,0.1766233349,0.2422300691
8.35049975,-0.08103831589,0.1181994179,0.1973856282,0.2439249829
8.36052575,-0.0613752991,0.1360956254,0.2235355461,0.2688067837
8.37055175,-0.09873783767,0.1451414142,0.2233355713,0.2840668374
8.38057675,-0.08430924833,0.153557604,0.2205043495,0.2816205874
8.39060275,-0.1008592075,0.1622557393,0.2406000602,0.3072261279
8.40062875,-0.1235411417,0.1365209007,0.2216995203,0.2881857862
8.41065475,-0.1113397568,0.1700160908,0.2271900558,0.3048234474
8.42068075,-0.07218913972,0.1711967533,0.2588983369,0.3186658894
8.43070675,-0.08153299034,0.1943127702,0.2450614858,0.3232030523
8.44073275,-0.09566571057,0.2110265976,0.2493322921,0.3403685428
8.45075875,-0.0912305975,0.2100899833,0.2673183274,0.3520226004
8.46078375,-0.1075969541,0.2151307583,0.2579487491,0.3526980363
8.47080975,-0.07650672376,0.2135627178,0.2447960222,0.3337475179
8.48083575,-0.07998815596,0.1934899208,0.2572470832,0.3316813476
8.49086175,-0.05891596019,0.1639659403,0.2510092735,0.3055512646
8.50088775,-0.07735281587,0.165204746,0.2519880974,0.3110853058
8.51091375,-0.04923121691,0.1676545466,0.2089034736,0.2723461419
8.52093975,-0.06196703732,0.1574011616,0.2294950283,0.2851017492
8.53096575,-0.07859067142,0.1338261017,0.2171059477,0.2668724633
8.54099175,-0.07575009406,0.1544236132,0.1992029428,0.2631853748
8.55101675,-0.09999089599,0.1177172784,0.1976581085,0.2508470944
8.56104275,-0.1176372081,0.1197446908,0.2009255326,0.2618174428
8.57106875,-0.1298836166,0.1300143749,0.1678981197,0.2489242257
8.58109475,-0.07761009336,0.1116696494,0.1475930695,0.2006916823
8.59112075,-0.1121466726,0.09402622439,0.156057508,0.2139433403
8.60114675,-0.09952604234,0.1006656281,0.1217799604,0.1867333943
8.61117275,-0.1003657025,0.08130831107,0.1435456359,0.1931053217
8.62119875,-0.119464463,0.07816799082,0.1142534335,0.1828546958
8.63122475,-0.1141540217,0.07170495372,0.09107154409,0.1626861002
8.64124975,-0.1241053981,0.0584007474,0.09164457123,0.1649591603
8.65127575,-0.1526164216,0.04855136845,0.08396951596,0.1808311011
8.661301875,-0.1650984728,0.04260383651,0.06601857305,0.1828415834
8.671327875,-0.1479357255,0.04327085763,0.06326220472,0.1666116819
8.681353875,-0.1506733918,0.04500112183,0.07371468742,0.1736704555
8.691379875,-0.1704691404,0.0385025629,0.0512040766,0.1821099466
8.701405875,-0.1525398231,0.03807717796,0.0484184448,0.164507188
8.711431875,-0.1679846585,0.02493409898,0.06567945281,0.1820833471
8.721456875,-0.1365751702,0.03049655523,0.04033994079,0.1456369727
8.731482875,-0.1151872247,0.02159844518,0.01968055844,0.1188356595
8.741508875,-0.1484257221,0.02578848682,0.004859036207,0.1507277389
8.751534875,-0.1656475264,0.02679504845,0.001577587919,0.1678081238
8.761560875,-0.1897532576,0.02421383165,0.006534848213,0.1914035336
8.771586875,-0.1643061751,0.02447330184,0.00503795187,0.1661951944
8.781612875,-0.1770250386,0.00997410737,-0.01878243526,0.1782978603
8.791638875,-0.1345052558,-0.0002357524261,-0.02754273375,0.1372964734
8.801664875,-0.1476708466,-0.01061437748,-0.007636454506,0.1482486404
8.811689875,-0.1323903179,-0.02527601492,-0.01041038275,0.1351830214
8.821715875,-0.1281826615,-0.06037637539,0.005924398899,0.1418139624
8.831741875,-0.1155860049,-0.08515837368,0.009554359512,0.1438866182
8.841767875,-0.1237978345,-0.0474272047,-0.03616970658,0.137417216
8.851793875,-0.159554143,-0.06096749235,-0.02137274265,0.1721376013
8.861819875,-0.1547372067,-0.05254731908,-0.02962902029,0.1660804104
8.871845875,-0.2000642377,-0.05772378601,-0.00608929038,0.2083142197
8.881871875,-0.2046841228,-0.05189754725,0.01001977961,0.2113985372
8.891896875,-0.1229324466,-0.02779682267,0.02519447367,0.128529418
8.901922875,-0.1363833815,-0.05164575152,0.0052835532,0.1459302105
8.911948875,-0.1389000231,-0.05529521808,0.0001368339825,0.149501827
8.921974875,-0.1276529038,-0.06708470318,-0.001398644848,0.1442136521
8.932000875,-0.1476918966,-0.08357227989,0.007223659353,0.1698511217
8.942026875,-0.1553131574,-0.059345694,0.002642941475,0.1662861191
8.952052875,-0.07072265804,-0.02669089492,-0.02316550811,0.0790616152
8.962078875,-0.07774516404,-0.02149597272,0.004286009073,0.0807759695
8.972104875,-0.0669634831,-0.009604307525,0.02329179883,0.07154619965
8.982129875,-0.04002068281,-0.015218,0.01733934243,0.04619410539
8.992155875,-0.04046857953,-0.01466759428,0.008797729807,0.04393454565
9.002181875,-0.08896480143,-0.007658865787,0.0311867094,0.09458332285
9.012207875,-0.06920472085,-0.00686974749,0.02704688072,0.0746191703
9.022233875,-0.0374824065,-0.02684979301,0.007050572634,0.04664282105
9.032259875,-0.03735376775,-0.02790927194,0.003698957758,0.04677513992
9.042285875,-0.03542827964,-0.04974730678,0.01283229947,0.06240693423
9.052311875,-0.03845538318,-0.0425174439,0.03184042811,0.06557714841
9.062336875,-0.0602041018,-0.04045593493,0.03110484838,0.07892229177
9.072362875,-0.06729092717,-0.04664418943,0.04637543678,0.0940979831
9.082388875,0.007494376302,-0.06028523192,0.03586799026,0.07054776813
9.092414875,0.05443173051,-0.07135773875,0.04387516737,0.09989880118
9.102440875,0.0706782192,-0.08747712359,0.06086600661,0.1278762237
9.112466875,0.1220886934,-0.106513392,0.05076551716,0.1697877777
9.122492875,0.1324838734,-0.1101489348,0.07018997669,0.1860413862
9.132518875,0.1267003924,-0.1234569418,0.06910707235,0.1899220718
9.142544875,0.09725381434,-0.143862153,0.03692398827,0.1775331079
9.152569875,0.148633883,-0.1109235813,0.04611933787,0.1911100871
9.162595875,0.1531485182,-0.125538843,0.05706181725,0.2060837711
9.172621875,0.157363776,-0.1214319414,0.0673938473,0.2098833129
9.182647875,0.1937539226,-0.1067073002,0.07773640235,0.2344567736
9.192673875,0.1657738262,-0.1272355222,0.05051526546,0.2149921664
9.202699875,0.1606908417,-0.0966730031,0.07940518856,0.2036477353
9.212725875,0.1816425848,-0.09086624287,0.09359871984,0.223632339
9.222751875,0.2301312053,-0.1133267869,0.04414296071,0.2602920154
9.232776875,0.185201785,-0.1406563805,0.04824772437,0.2375116027
9.242802875,0.04221689701,-0.1461939495,0.07532031457,0.1697883596
9.252828875,0.1071385324,-0.1251535846,0.05785351197,0.1746113218
9.262854875,0.1064906609,-0.1516950831,0.04268116593,0.1901929048
9.272880875,0.07889414191,-0.1614521857,0.05827101231,0.1889089854
9.282906875,0.1370599043,-0.1881555425,0.07408539633,0.2442878865
9.292932875,0.1250134706,-0.1693714719,0.07078055004,0.2220922096
9.302958875,0.08362220049,-0.1571511566,0.08259192109,0.196241137
9.312984875,0.05689867079,-0.1779108187,0.08763105154,0.2063223675
9.323009875,0.06788617373,-0.1691083106,0.07444207191,0.1968445462
9.333035875,0.08425837755,-0.1438008669,0.07798898379,0.1840120787
9.343061875,0.1027215457,-0.1631893569,0.0786263303,0.2082416432
9.353087875,0.09169252753,-0.1645582632,0.1080553758,0.2171702232
9.363113875,0.08095879376,-0.1556911799,0.1033249875,0.2036421441
9.373139875,0.03369633436,-0.1464878452,0.1172273274,0.1906210325
9.383165875,0.05394290328,-0.1241276175,0.1047996461,0.1711737949
9.393191875,0.05382888258,-0.1220822614,0.1228336287,0.1813552522
9.403216875,0.01987702489,-0.1508807852,0.1521831429,0.2152203904
9.413242875,0.05821897209,-0.1337304267,0.137724148,0.2006021353
9.423268875,0.07890291274,-0.09986656956,0.1669730902,0.2099500279
9.433294875,0.006926611662,-0.1090477945,0.1641921544,0.1972269327
9.443320875,-0.01954314888,-0.1039879064,0.1624871063,0.1939006938
9.453346875,0.00952219069,-0.08442542519,0.161897707,0.1828365173
9.463372875,-0.003177961707,-0.06209388535,0.1903385639,0.200236158
9.473398875,-0.06242078125,-0.07445654377,0.2086216378,0.2301371735
9.483424875,-0.08783161104,-0.07167462129,0.2173620558,0.2451487437
9.493449875,-0.08061088443,-0.0360108085,0.2129848301,0.2305589532
9.503475875,-0.1343152213,-0.04770918667,0.186079452,0.2343977552
9.513501875,-0.1333755738,-0.01927951254,0.2176099777,0.2559586796
9.523527875,-0.1469563168,-0.04631133668,0.2212177098,0.2695888983
9.533553875,-0.1509587359,-0.06293449569,0.2424501193,0.2924574346
9.543579875,-0.1396952444,-0.01613597631,0.2421425557,0.2800145502
9.553605875,-0.1793212402,-0.02989973724,0.2182660353,0.2840601409
9.563631875,-0.1893065304,-0.009061247371,0.2307194352,0.2985808541
9.573656875,-0.1603721684,0.02971269943,0.2259141934,0.2786382954
9.583682875,-0.1683992261,0.0214163775,0.2294272006,0.2854011228
9.593708875,-0.1529292476,0.03860942077,0.2527903354,0.2979613999
9.603734875,-0.1631946194,0.02893026888,0.2531411684,0.3025721325
9.613760875,-0.201892662,0.01896270309,0.2364660788,0.3115067214
9.623786875,-0.1876038212,0.0586124897,0.210530169,0.2880166136
9.633812875,-0.1801907212,0.06402649976,0.1914226377,0.2705747861
9.643838875,-0.1853491348,0.04718213327,0.1959647548,0.2738295831
9.653864875,-0.1812227547,0.0492734265,0.1934469438,0.2696131997
9.663890292,-0.1965465528,0.04287160244,0.1843849289,0.2728851841
9.673916292,-0.2031872356,0.05747250192,0.1784476662,0.276462856
9.683942292,-0.2289822274,0.08251444548,0.1598874342,0.2912138146
9.693968292,-0.2785724634,0.06287368465,0.1542448711,0.3245723307
9.703994292,-0.2426886857,0.06979309693,0.157661984,0.2977014876
9.714020292,-0.1895854425,0.0685956968,0.1403249804,0.2456402039
9.724046292,-0.2204523093,0.06122148078,0.1276213288,0.261981858
9.734072292,-0.2102986193,0.04664429907,0.1028653781,0.2387100457
9.744097292,-0.2007413453,0.07286496822,0.09207377513,0.2325596082
9.754123292,-0.2079456997,0.05543723233,0.07371701717,0.2274838442
9.764149292,-0.2043689579,0.04947084311,0.06745230119,0.2208253794
9.774175292,-0.1928540361,0.02566112716,0.08759128134,0.2133621458
9.784201292,-0.1844802386,0.03471561369,0.08521965067,0.2061565452
9.794227292,-0.1695218915,0.0471763226,0.07754695256,0.1922935437
9.804253292,-0.1596517915,0.02270356894,0.05703373234,0.1710467573
9.814279292,-0.1602610713,0.00989016328,0.06085782051,0.1717122611
9.824305292,-0.1319839364,0.002098090611,0.05342601855,0.1424026015
9.834330292,-0.1072969919,0.01189776823,0.04826643546,0.1182533304
9.844356292,-0.09383787096,-0.01778693765,0.02943839192,0.09994268405
9.854382292,-0.1083664477,-0.0153838782,0.03920908928,0.1162639384
9.864408292,-0.1299344873,-0.007968695126,0.03896117647,0.1358839371
9.874434292,-0.1353361452,-0.01594963286,0.03618842681,0.1409959759
9.884460292,-0.1184341836,-0.02182904474,0.03137149055,0.1244481155
9.894486292,-0.07218972445,-0.04617410984,0.02375372887,0.08892493672
9.904512292,-0.007831175923,-0.0414122105,0.02069797397,0.04695428225
9.914537292,-0.005142041445,-0.05903520685,0.01788430293,0.06189866339
9.924563292,-0.009338588119,-0.06674812283,0.03263915777,0.07488548424
9.934589292,-0.02057284355,-0.05384185608,0.02345669031,0.06222864034
9.944615292,-0.006808497906,-0.07831833735,0.02816954613,0.08350832856
9.954641292,0.006060639024,-0.06277461089,0.04517208894,0.07757512963
9.964667292,0.0404867059,-0.03380395968,0.03865945101,0.06539445081
9.974693292,0.04048904479,-0.05233999874,0.0381484135,0.0763815401
9.984719292,0.06219624817,-0.06051254243,0.02686443846,0.09083963414
9.994745292,0.04498146057,-0.05163288765,0.03713214914,0.07789790358
10.00477029,0.01968640566,-0.05645464785,0.03079260707,0.06725226005
10.01479629,0.02762341619,-0.07144478917,0.06101802508,0.09793166192
10.02482229,0.06953859687,-0.0597594576,0.04244960706,0.1010384994
10.03484829,0.0726873225,-0.0613342955,0.04653097272,0.1058795262
10.04487429,0.06311309159,-0.04881643005,0.05485156973,0.09682458817
10.05490029,0.05354061484,-0.02786176331,0.0528588295,0.08023048765
10.06492629,0.04950779021,-0.01633109059,0.07509345174,0.09141527392
10.07495229,0.04921542943,-0.003936637938,0.09116862615,0.1036791879
10.08497729,0.07961451888,0.005425631404,0.08681478024,0.1179182563
10.09500329,0.08516878903,0.008314155936,0.09498801827,0.1278498003
10.10502929,0.09102536023,0.0130247825,0.09201763272,0.1300865323
10.11505529,0.07083726346,0.02719306111,0.1210291779,0.1428476194
10.12508129,0.06906321824,0.01789635368,0.1174121086,0.1373885397
10.13510729,0.06174308896,0.02561679795,0.1259969815,0.1426312333
10.14513329,0.06011288524,0.02812719036,0.1061889446,0.1252229602
10.15515929,0.07629739344,0.02917512104,0.11644846,0.1422417793
10.16518429,0.1004136497,0.03168851014,0.1262507415,0.164396814
10.17521029,0.08486824214,0.04480882153,0.1254636971,0.1579607176
10.18523629,0.058693766,0.05311797079,0.1383030224,0.1593555866
10.19526229,0.04120123565,0.06654504173,0.1307028115,0.1523450338
10.20528829,0.06113322437,0.05749961838,0.1406536031,0.1637892344
10.21531429,0.04918619335,0.07250741098,0.137190882,0.162781892
10.22534029,0.04876636326,0.06390816674,0.127127833,0.1504124259
10.23536629,0.02155283689,0.05502010658,0.133900069,0.1463590291
10.24539229,0.02053717554,0.05572546352,0.1170752998,0.1312772969
10.25541729,-0.0253868562,0.03962731138,0.1046335852,0.114730133
10.26544329,-0.03703275561,0.03638404358,0.09079439521,0.1045889374
10.27546929,-0.07352932155,0.04293789525,0.1145340816,0.1427174826
10.28549529,-0.06975728273,0.04549908534,0.09706495841,0.1278978163
10.29552129,-0.09622411966,0.05653475471,0.08158852975,0.1382459688
10.30554729,-0.09140776813,0.05541479364,0.06627350251,0.1257710482
10.31557329,-0.0954224664,0.06432463467,0.05295940161,0.1266799271
10.32559929,-0.1070666116,0.06793920066,0.05105788708,0.1366963867
10.33562429,-0.1055381495,0.05387957063,0.03727600892,0.1242208113
10.34565029,-0.1137388694,0.03515156016,0.02656156182,0.1219740922
10.35567629,-0.1211893916,0.03941228002,0.01718379736,0.1285903548
10.36570229,-0.1210081279,0.032568845,-0.01872628371,0.126705842
10.37572829,-0.1131892312,0.006324202269,-0.006739509897,0.1135659217
10.38575429,-0.1489268285,0.01443063587,-0.01732062221,0.1506235289
10.39578029,-0.1587700313,-0.00687921267,-0.0181029888,0.1599467556
10.40580629,-0.1645669609,0.002447132841,-0.01388829748,0.1651700878
10.41583229,-0.1598891884,0.005138533115,-0.03639774799,0.164060212
10.42585729,-0.1799071312,-0.01649748042,-0.01302407901,0.1811308073
10.43588329,-0.1767250764,-0.02274267219,0.004145685034,0.1782306609
10.44590929,-0.1732395512,-0.01798106521,0.003567980127,0.1742067487
10.45593529,-0.1541875684,-0.03149061844,-0.01219378352,0.1578421796
10.46596129,-0.1695639914,-0.03645442944,-0.01027356704,0.173742392
10.47598729,-0.2024545795,-0.04588215105,0.004943236113,0.2076474515
10.48601329,-0.2166311538,-0.0887909564,0.02074592113,0.2350388989
10.49603929,-0.21284859,-0.09707075994,0.01624355595,0.234501829
10.50606429,-0.2056272787,-0.09928513706,0.01796147704,0.2290474423
10.51609029,-0.1876277947,-0.1136081476,0.03398520509,0.2219594439
10.52611629,-0.1706813943,-0.1378984316,0.04544105172,0.2240825852
10.53614229,-0.2029831678,-0.1357219518,0.07756214619,0.2562001193
10.54616829,-0.20025895,-0.1479645595,0.07964841446,0.2614211695
10.55619429,-0.1876564461,-0.1510944644,0.09213575562,0.257940839
10.56622029,-0.1503588116,-0.1781215012,0.102954274,0.2548227304
10.57624629,-0.08791113317,-0.1600239302,0.09939915776,0.207885108
10.58627129,-0.07651081681,-0.1575587441,0.1304420074,0.218389057
10.59629729,-0.06316747069,-0.1609952623,0.1544764209,0.2318891297
10.60632329,-0.07002859354,-0.1753972834,0.1438426836,0.237400355
10.61634929,-0.04859620929,-0.1678966944,0.1482795235,0.229211057
10.62637529,-0.04198300838,-0.1551093089,0.1490443393,0.2191704491
10.63640129,-0.04480078161,-0.1382979792,0.1679975406,0.2221634865
10.64642729,-0.03862846076,-0.1181587432,0.1579169043,0.2009761061
10.65645329,-0.013746804,-0.09982242309,0.1559885108,0.1857038133
10.666479,-0.03676553786,-0.0888002754,0.1777881002,0.2021034445
10.676504,-0.04466337204,-0.08531149764,0.1813139713,0.2052988666
10.68653,-0.03878692031,-0.0849155315,0.1688979936,0.1929808408
10.696556,-0.04054517806,-0.06703686565,0.158380022,0.1766977199
10.706582,-0.02673580885,-0.06498584513,0.1688558936,0.1828941671
10.716608,-0.04331324995,-0.06049763203,0.1612217689,0.1775625519
10.726634,-0.04507618546,-0.03862279627,0.15099032,0.1622395132
10.73666,-0.04803780019,-0.02993606307,0.1478702366,0.1583332088
10.746686,-0.07779369593,-0.02692653771,0.1276985121,0.1519335629
10.756711,-0.0602502948,-0.02078202769,0.102643193,0.1208205933
10.766737,-0.004085449576,-0.0123761801,0.09450621684,0.09540065908
10.776763,0.0007385033369,-0.02380163949,0.08043313821,0.08388416508
10.786789,-0.001172366738,-0.0147047241,0.09388406396,0.09503589227
10.796815,0.004248002172,-0.02095499564,0.07039814671,0.07357347636
10.806841,-0.01158450365,-0.02009790346,0.07346676548,0.07704214482
10.816867,0.009707547426,-0.01770708662,0.06932808797,0.07220914883
10.826893,0.03893134654,-0.02086359635,0.0703665626,0.08308063871
10.836918,0.05558363199,-0.001538365893,0.06616826177,0.08643000394
10.846944,0.07089281201,-0.0000756848976,0.08063194354,0.1073652963
10.85697,0.05895981431,0.009198291488,0.07930227757,0.09924575304
10.866996,0.0404352504,0.01659355748,0.0645252033,0.07793495677
10.877022,0.04646782279,0.02083202139,0.06676935554,0.08397248662
10.887048,0.04995393276,0.04795908205,0.0723078382,0.1001193908
10.897074,0.05703023314,0.05229859315,0.06647464673,0.1020121022
10.9071,0.04959140539,0.05943917636,0.07109395623,0.1051031578
10.917126,0.02702641547,0.0455955644,0.06684653878,0.0853102712
10.927151,0.01389707744,0.05943822619,0.06434160073,0.08868975746
10.937177,0.01214291275,0.05723700531,0.05191391945,0.07822135347
10.947203,0.03418399215,0.0634756555,0.03792153239,0.08146009317
10.957229,0.04679409742,0.06850016791,0.04294313033,0.09341345192
10.967255,0.001617924571,0.08478181299,0.05321668823,0.1001128833
10.977281,-0.007034785151,0.08069037002,0.0543475306,0.09754013583
10.987307,-0.01554014504,0.1030244315,0.03405652285,0.1096146721
10.997333,-0.06835687459,0.1097141578,0.01448822181,0.1300760058
11.007358,-0.08495419621,0.1019166399,0.006029639645,0.1328178207
11.017384,-0.06217636764,0.1114724156,0.006635411186,0.1278124751
11.02741,-0.05751496732,0.09697738722,-0.0230894806,0.1150900048
11.037436,-0.0902763319,0.09472949825,-0.005151392422,0.1309581261
11.047462,-0.08173238039,0.1074087103,-0.03654509326,0.1398297425
11.057488,-0.09355311155,0.1211385574,-0.02488457581,0.1550676526
11.067514,-0.09145863891,0.1119630335,-0.02818942666,0.147292387
11.07754,-0.0850243628,0.1072342075,-0.03636734247,0.1416012045
11.087566,-0.07634475589,0.1030745713,-0.02513366719,0.1307080343
11.097591,-0.06961753428,0.08665029075,-0.02576166729,0.1140988057
11.107617,-0.11049308,0.1050436212,-0.01311297039,0.1530190612
11.117643,-0.1120057547,0.06449668899,-0.02949803352,0.1325716635
11.127669,-0.09795840383,0.06149326667,-0.01239492774,0.1163224181
11.137695,-0.124928686,0.04001878247,-0.01598862648,0.1321526228
11.147721,-0.1029530954,0.0374764131,-0.01725630283,0.1109125844
11.157747,-0.1013310778,0.0128469906,0.02896243085,0.1061689922
11.167773,-0.136690945,-0.007178919017,0.02251412372,0.1387185535
11.177798,-0.1745961052,-0.01900308542,0.05120523691,0.1829395898
11.187824,-0.1665550143,-0.02904629957,0.04405058384,0.1747132343
11.19785,-0.1827646655,-0.05141880646,0.04963818312,0.1962416007
11.207876,-0.1753246683,-0.0640963009,0.07239788532,0.2002211999
11.217902,-0.1669847846,-0.08676259384,0.07922860265,0.2041784451
11.227928,-0.1695739317,-0.09227604311,0.07986244082,0.2089215065
11.237954,-0.1690348184,-0.08883579724,0.08685337186,0.2097810213
11.24798,-0.2229841536,-0.1050505282,0.1017824829,0.2666781207
11.258005,-0.2070311952,-0.1048430617,0.09209481597,0.24967066
11.268031,-0.1915302265,-0.1030768006,0.1074121821,0.2425820095
11.278057,-0.2025282544,-0.1270033512,0.1104024482,0.2633177655
11.288083,-0.203950882,-0.1354844452,0.1020537937,0.2652677401
11.298109,-0.2389131385,-0.1037430177,0.1137447166,0.2842181592
11.308135,-0.2343569881,-0.1019571319,0.1077080512,0.2773436116
11.318161,-0.2347458279,-0.08966679621,0.1085991669,0.2737508303
11.328187,-0.236184243,-0.09583341602,0.103917886,0.2752561848
11.338213,-0.2392674798,-0.1022915195,0.1229119813,0.2877843585
11.348238,-0.2110704517,-0.09285499055,0.1183885753,0.2592077152
11.358264,-0.2006863815,-0.1138054181,0.1259735835,0.2628612573
11.36829,-0.1971862382,-0.1031879342,0.1172881293,0.2515684153
11.378316,-0.1724338049,-0.09474755153,0.1153538704,0.2280724249
11.388342,-0.1604043281,-0.08093321219,0.1317436159,0.2227916373
11.398368,-0.1079553884,-0.07439160313,0.1240755773,0.1805082419
11.408394,-0.1284048557,-0.08223922435,0.1646295261,0.2243969204
11.41842,-0.1148691362,-0.06768038828,0.1588162243,0.2073599444
11.428445,-0.06765520871,-0.04973115385,0.1651019812,0.1852271015
11.438471,-0.0608519733,-0.07720484477,0.1603984809,0.1881255522
11.448497,-0.07126411021,-0.09722505335,0.181236788,0.2176650127
11.458523,-0.02478927076,-0.1024914578,0.1870407343,0.2147166578
11.468549,0.01076004624,-0.09440081164,0.1435549915,0.1721491429
11.478575,-0.05502639234,-0.060043815,0.1649873757,0.183994559
11.488601,-0.1196147364,-0.07822266228,0.1724729812,0.2239941948
11.498627,-0.1448337775,-0.09701342069,0.2348920083,0.2925109955
11.508652,-0.05509012699,-0.08525737435,0.2022785783,0.2263191667
11.518678,-0.02072370172,-0.07391004838,0.1824740589,0.1979619893
11.528704,-0.04638186872,-0.0779784314,0.205626694,0.2247537559
11.53873,-0.001536063552,-0.05326985221,0.2057857382,0.2125742381
11.548756,-0.03511252999,-0.06704329759,0.1940082765,0.2082472205
11.558782,-0.103126173,-0.07786378942,0.1866922402,0.2270501483
11.568808,-0.08880458772,-0.04458355755,0.1968114316,0.2204737808
11.578834,-0.04663914621,-0.01092870187,0.1831347942,0.1892960627
11.58886,-0.02243342757,-0.007918664888,0.1618392348,0.1635784272
11.598885,-0.008252760172,-0.0135112343,0.1852433002,0.1859186429
11.608911,0.003835773468,0.001186400056,0.1701609921,0.1702083545
11.618937,-0.06295872509,-0.007452605255,0.1732389665,0.1844751525
11.628963,-0.09382266819,-0.007293816805,0.1438286412,0.1718795242
11.638989,-0.0296301806,-0.01407991257,0.1290901403,0.1331933026
11.649015,-0.004357345104,0.003813042417,0.1284270751,0.1285575333
11.659041,0.03094697356,0.00003406003118,0.1156579256,0.1197266557
11.66906754,0.04410320878,0.0094102896,0.1060836856,0.115270963
11.67909254,0.05412007391,0.05007387377,0.1305601394,0.1499410726
11.68911854,-0.02177736998,0.05613074865,0.1321108119,0.1451832683
11.69914454,-0.01579332948,0.08291976716,0.1062146723,0.1356711969
11.70917054,0.001729021668,0.1089186807,0.1189159942,0.1612677345
11.71919654,0.01072554767,0.0843448798,0.1167115939,0.1443976879
11.72922254,0.001168858409,0.08871662367,0.1081875412,0.1399162235
11.73924854,-0.002696735859,0.09436141603,0.09722165465,0.1355116207
11.74927454,0.002276905775,0.09990128741,0.08832219243,0.1333651424
11.75929954,-0.05980999947,0.07623925019,0.08782518824,0.1307781442
11.76932554,-0.01411868691,0.09203853652,0.08291935603,0.1246837966
11.77935154,0.01929873526,0.06846197829,0.08858297825,0.1136064597
11.78937754,0.04118954122,0.06736869514,0.06735173821,0.1037852399
11.79940354,0.05036733091,0.09394260921,0.09001202862,0.1395143259
11.80942954,0.04562406957,0.09947020143,0.08569445372,0.1389943024
11.81945554,0.03744147599,0.1181123675,0.09327829242,0.1550910549
11.82948154,-0.0231310004,0.09472178724,0.06373465061,0.116487621
11.83950654,0.01868302345,0.08560374878,0.06311952353,0.1079867187
11.84953254,0.01843685567,0.0798100717,0.08346782486,0.1169463252
11.85955854,0.05666361272,0.08714766953,0.05277696848,0.1165799713
11.86958454,0.01766093016,0.07482656289,0.04240516822,0.08780160169
11.87961054,-0.003539904356,0.06500609111,0.02490563035,0.06970375332
11.88963654,0.005797514319,0.07272109017,0.03088266333,0.07921936014
11.89966254,-0.01270775378,0.06388159845,-0.01188738942,0.06620918104
11.90968854,-0.06040232241,0.04067663077,-0.0214651378,0.07591956918
11.91971354,-0.1010585976,0.02285190549,0.0257745266,0.1067678601
11.92973954,-0.04741799533,0.01663605943,-0.01188972831,0.05163903944
11.93976554,-0.09780754566,-0.002270364203,0.02127333999,0.1001200556
11.94979154,-0.04177250862,0.03129184965,-0.02346486728,0.05722518962
11.95981754,-0.008790704012,0.01979158245,0.001814984875,0.02173194384
11.96984354,-0.03494354546,-0.01070563059,-0.01739896576,0.04047697994
11.97986954,-0.09208312154,-0.03181499273,-0.01442624132,0.09848660555
11.98989554,-0.1234727293,-0.06390816674,0.01120677352,0.1394824736
11.99992154,-0.08062667191,-0.07198894568,-0.01061268727,0.108608
12.00994654,-0.0930175066,-0.07949750148,-0.04446807504,0.1301903183
12.01997254,-0.01589857936,-0.10865234,-0.07163541754,0.1311096063
12.02999854,0.02229250968,-0.1316697582,-0.05188118418,0.1432673671
12.04002454,-0.02948633909,-0.1374521794,-0.03955525358,0.1460382275
12.05005054,-0.07003853381,-0.1550598634,-0.02055764993,0.1713813713
12.06007654,-0.03365715802,-0.139416113,-0.05759506504,0.154553707
12.07010254,-0.001467651129,-0.1234180213,-0.02792512338,0.1265463334
12.08012854,-0.07930344701,-0.1140888253,-0.03651585261,0.1436617703
12.09015354,-0.04293259621,-0.15367305,-0.08488869826,0.1807337965
12.10017954,-0.06209918439,-0.1544123208,-0.07621026079,0.1830504776
12.11020554,-0.1264741051,-0.1810967472,-0.06215941072,0.2294679138
12.12023154,-0.08891568482,-0.184959893,-0.1275885844,0.2416505905
12.13025754,-0.02067049205,-0.1443726515,-0.1258145483,0.1926136867
12.14028354,-0.04344188869,-0.1166233009,-0.06346918702,0.1397015738
12.15030954,-0.07264580727,-0.03579435188,-0.01102783045,0.08173286967
12.16033554,-0.06428078055,0.007564981431,0.01091090441,0.06563760757
12.17036154,-0.07791707218,0.02551589694,0.0003040552139,0.08198916747
12.18038654,-0.1548746163,0.01314998601,0.02864434917,0.158049257
12.19041254,-0.1673128134,0.01357975636,0.01949228724,0.1689909364
12.20043854,-0.1096984434,-0.03625185996,0.009092429476,0.1158905437
12.21046454,-0.1158543921,-0.02490862705,0.01180670698,0.1190885309
12.22049054,-0.1339854383,-0.04036164857,0.05793889959,0.1514532154
12.23051654,-0.1163478971,0.01617997661,0.04985102633,0.1276077961
12.24054254,-0.09273099303,0.04064750433,0.06116188943,0.1182879258
12.25056854,-0.1117765439,0.04559340823,0.08729191303,0.1489719192
12.26059354,-0.1171980822,0.04071624566,0.1351548815,0.1834667412
12.27061954,-0.04837459981,-0.0004254214838,0.09809640725,0.1093763594
12.28064554,-0.02130666912,-0.005809501112,0.1266436744,0.1285548315
12.29067154,-0.0446785748,-0.02275699787,0.127278682,0.1367988263
12.30069754,0.001559452415,0.0005227410793,0.1168145049,0.1168260831
12.31072354,-0.02540498257,0.04015096609,0.1547804761,0.1619089528
12.32074954,-0.05850840926,0.08360915389,0.1565638769,0.1868849167
12.33077554,-0.02171480477,0.09634607065,0.2181771576,0.2394898123
12.34080054,0.03154514372,0.09428832583,0.213522774,0.2355363231
12.35082654,0.06236698687,0.1021215483,0.2179385912,0.2486275955
12.36085254,-0.01069280326,0.07963534959,0.2183081535,0.232625396
12.37087854,-0.03824371397,0.09206174266,0.2258194685,0.246844847
12.38090454,-0.04962882757,0.08138392288,0.1867448652,0.209666421
12.39093054,-0.0497948885,0.07264657471,0.1933674216,0.2124806238
12.40095654,-0.00834923923,0.08103107996,0.2113043586,0.2264625304
12.41098254,0.05540412247,0.07936586604,0.1958524883,0.2184645386
12.42100754,0.02351165414,0.0556342835,0.195981127,0.2050769942
12.43103354,0.02170661867,0.04640174925,0.2049542642,0.2112594377
12.44105954,0.03158724368,0.02898742542,0.2081515217,0.2125207773
12.45108554,0.03712748051,0.0002137157321,0.1850304615,0.1887187515
12.46111154,0.04956216931,-0.005679692924,0.194305315,0.2006071359
12.47113754,0.08595114648,0.01906517554,0.1807315886,0.2010347921
12.48116354,0.08956472576,0.01742970932,0.2107102633,0.2296180522
12.49118954,0.05755122006,0.001689333692,0.1716017461,0.1810031934
12.50121454,0.09544527054,-0.003668908551,0.1803222835,0.2040573118
12.51124054,0.08498986423,-0.04467842862,0.1942643845,0.2166981543
12.52126654,0.07184590816,-0.09785837989,0.1397917235,0.185148111
12.53129254,0.1105012661,-0.131887165,0.1268214206,0.213748513
12.54131854,0.1090412164,-0.1018293702,0.1743499374,0.2294713668
12.55134454,0.05728868008,-0.07877474908,0.1658188498,0.1923105429
12.56137054,0.04400556028,-0.02762601089,0.1832353663,0.1904596684
12.57139654,0.01979516387,-0.02049595267,0.1820331788,0.1842498596
12.58142254,0.02627504826,0.009564363733,0.2100085974,0.2118619036
12.59144754,0.03949677229,-0.01428273786,0.2372963834,0.2409845746
12.60147354,0.06814695954,-0.04629850935,0.2205160439,0.2354036654
12.61149954,0.05743778408,-0.08622530781,0.2375057137,0.2591194064
12.62152554,0.05556199729,-0.08566836052,0.2025148058,0.2268004632
12.63155154,0.07898185015,-0.05346785355,0.1998016977,0.221399328
12.64157754,0.07380531013,-0.06029140804,0.1837791209,0.2070194265
12.65160354,0.04527966857,-0.0308408466,0.2040140319,0.2112418789
12.66162954,0.01271243155,-0.0313832124,0.2220562005,0.2246229466
12.671654,0.002300294638,-0.01018891945,0.2204189801,0.2206663369
12.68168,-0.0697754091,-0.02070309028,0.2281735575,0.239500309
12.691706,-0.05232556343,-0.01931382839,0.2043215954,0.2117977878
12.701732,-0.01796206176,-0.008386222869,0.2075703084,0.2085147413
12.711758,0.01879353583,0.03871675372,0.2073270643,0.2117467723
12.721784,0.0208207655,0.01138270162,0.1998520021,0.2012557897
12.73181,0.02284273267,-0.009289800413,0.2055518496,0.207025732
12.741836,0.01169735491,-0.01443571564,0.181268363,0.182218104
12.751861,-0.01367605269,-0.03336143509,0.128660982,0.1336176189
12.761887,-0.030064044,-0.04111809555,0.1524953842,0.1607774447
12.771913,-0.08701826334,-0.05373722747,0.1440917659,0.176698344
12.781939,-0.07002157688,-0.02264897056,0.1543863738,0.1710296743
12.791965,-0.04150295198,0.01436397761,0.1455793067,0.1520597034
12.801991,-0.08064421356,0.04389044322,0.09010208488,0.1286399856
12.812017,-0.1413365579,0.05596582063,0.09487575173,0.1791915286
12.822043,-0.1825793087,0.00738159813,0.09178959131,0.2044872149
12.832068,-0.1649862063,-0.02359029919,0.09874077042,0.1937180689
12.842094,-0.04426283777,-0.0288481155,0.0581154581,0.07854182991
12.85212,-0.03460908473,-0.02866582856,0.05454516649,0.07067314667
12.862146,-0.07062617898,-0.02545870386,0.04949318131,0.08992095282
12.872172,-0.01234113336,0.006816172376,-0.0271954,0.03063255718
12.882198,-0.08594120622,0.03607962292,-0.002037169933,0.09322971724
12.892224,-0.1583502012,0.03649082836,0.01402162313,0.1631041775
12.90225,-0.1047195393,0.03187690012,-0.05623852015,0.1230653884
12.912276,-0.1670917886,0.03535606652,-0.04787349343,0.1773741488
12.922301,-0.2019300842,-0.02075034309,-0.1058872283,0.2289507387
12.932327,-0.1767496347,-0.07054461032,-0.1368879962,0.2344254656
12.942353,-0.2097986823,-0.09949044742,-0.121361318,0.2619969575
12.952379,-0.1924143255,-0.09543854624,-0.1755041778,0.2773688973
12.962405,-0.1669491166,-0.05651304692,-0.1120969713,0.2088814567
12.972431,-0.17277996,-0.07046479583,-0.1596453595,0.2455704438
12.982457,-0.1281668741,-0.06694254275,-0.1933919434,0.2414715209
12.992483,-0.2287612027,-0.05022944625,-0.1498021476,0.2780204463
13.002508,-0.2265199649,-0.05983408269,-0.1932925773,0.3037325014
13.012534,-0.2206856132,-0.09861164745,-0.1805526638,0.3017045927
13.02256,-0.2808680803,-0.1007877253,-0.2147249432,0.3676300387
13.032586,-0.3311792779,-0.154031667,-0.2583171237,0.4473624984
13.042612,-0.3115946138,-0.15797079,-0.2379980493,0.4227162704
13.052638,-0.2867755222,-0.1392531584,-0.2641011894,0.4139819809
13.062664,-0.3083669508,-0.1332323901,-0.2496059418,0.4185022966
13.07269,-0.2690444255,-0.121231053,-0.2433576071,0.3824980994
13.082715,-0.2240384066,-0.08025650661,-0.238271699,0.3367606227
13.092741,-0.2401118177,-0.08008094396,-0.2529026202,0.3578077388
13.102767,-0.2545409918,-0.056728663,-0.253699011,0.3638302432
13.112793,-0.2662786925,-0.04780683517,-0.2378670716,0.3602368378
13.122819,-0.251077686,-0.02687460713,-0.2622616736,0.3640651512
13.132845,-0.2840787864,0.001935574561,-0.2423156333,0.3733917105
13.142871,-0.2959831327,0.02445035152,-0.2065657568,0.3617640756
13.152897,-0.2779549974,0.01678198401,-0.2086309934,0.3479475635
13.162922,-0.2615781158,0.008377086595,-0.2139730096,0.3380499003
13.172948,-0.2943020582,-0.007261291668,-0.1937825739,0.3524459019
13.182974,-0.2598140109,0.0310182365,-0.1676747561,0.3107736717
13.193,-0.2257802922,-0.003605539352,-0.1513317974,0.2718290881
13.203026,-0.2007349133,0.005325972922,-0.165877322,0.2604575923
13.213052,-0.1833207357,0.02464148238,-0.1394291961,0.231633753
13.223078,-0.1467499101,0.03969323874,-0.1032466165,0.1837687491
13.233104,-0.1371213001,0.07498001575,-0.08223641038,0.1765986435
13.243129,-0.1505371517,0.1060688574,-0.06373581092,0.1948699313
13.253155,-0.1661983341,0.1136677892,-0.04125444531,0.2055338946
13.263181,-0.188444066,0.1057209481,-0.02599905968,0.2176328008
13.273207,-0.1677250421,0.1207251592,-0.05552515984,0.2139843387
13.283233,-0.2103220081,0.1296363159,-0.02736963789,0.2485759815
13.293259,-0.2057658577,0.1280906775,-0.03789697409,0.2453222177
13.303285,-0.2045040286,0.117225089,-0.003577326536,0.2357465089
13.313311,-0.1595336777,0.1624676643,-0.01287673831,0.2280625937
13.323336,-0.359905479,0.2229810838,0.1874032617,0.4630037797
13.333362,-0.2936881006,0.06255289178,-0.02091431638,0.3010032779
13.343388,0.08703463554,0.04917318329,-0.1564212048,0.1856357268
13.353414,-0.1299432582,0.1366546192,0.09759470701,0.2123310202
13.36344,-0.1494776362,0.1677977668,0.1311249804,0.2601795818
13.373466,0.01018117189,0.09922388747,0.02314093153,0.102394037
13.383492,-0.02536171317,0.1867783039,0.007873860598,0.1886566961
13.393518,-0.4340733165,0.1357740285,0.1665976989,0.4843645571
13.403544,0.03993531346,0.1358126567,0.1104340231,0.1795426981
13.413569,0.39856493,0.2649779063,0.102643193,0.489492512
13.423595,-0.06833231628,0.1293262673,0.1640003657,0.2197514706
13.433621,-0.156828171,0.0326173038,0.1504278088,0.2197441453
13.443647,0.06034209609,0.09040511683,0.2294833338,0.2539229297
13.453673,0.1079337537,0.07873283185,0.1019789493,0.1680721872
13.463699,-0.08023841679,0.03892290462,0.1016117442,0.1351966811
13.473725,0.0279818505,0.08302929282,0.2288904262,0.2450870756
13.483751,0.1480362976,0.08496497702,0.1764280379,0.2454804376
13.493776,0.02094472647,0.1197038334,0.2197032809,0.2510721429
13.503802,0.03637494385,0.1678773255,0.1999209809,0.2635798391
13.513828,0.1055545217,0.1134746484,0.224205637,0.2725553531
13.523854,0.04495280921,0.08747069165,0.1837698019,0.2084303649
13.53388,0.1002142596,0.1160127785,0.1693365347,0.2284222507
13.543906,0.2039923972,0.07655434202,0.2630323184,0.3415544845
13.553932,0.1887639087,0.03521551408,0.2111850572,0.2854313824
13.563958,0.07849126875,0.03744991791,0.2247611225,0.2409998709
13.573983,0.1524813509,0.07268184073,0.2048724031,0.2655294973
13.584009,0.162849049,0.04250640728,0.2190378678,0.2762321396
13.594035,0.08535648465,-0.01234986763,0.2266778398,0.2425305996
13.604061,0.1889960432,-0.02855253875,0.1859192383,0.2666471732
13.614087,0.1832102233,-0.02026356239,0.2385137737,0.3014389128
13.624113,0.1100755888,-0.09095347602,0.1925125587,0.2396878289
13.634139,0.1083436435,-0.09244093459,0.213934418,0.2570050713
13.644165,0.1209841543,-0.03955604844,0.2265784371,0.259883887
13.65419,0.09410333455,-0.04200065967,0.2077445555,0.2318993172
13.66421542,0.06378727555,-0.05417061578,0.2853534794,0.2973716199
13.67424142,0.07119160473,-0.04119319573,0.2705319571,0.2827590207
13.68426742,0.07441108167,-0.05864048325,0.263163296,0.2796974002
13.69429342,0.1153468537,-0.02083779551,0.2954902124,0.3178892512
13.70431942,0.08024017096,-0.09486135297,0.2679042184,0.2953131077
13.71434542,0.001726098061,-0.07695589956,0.2738718867,0.2844837434
13.72437142,0.04834068596,-0.09355979931,0.2419343948,0.2638607765
13.73439642,0.08372920454,-0.1005701358,0.2683228791,0.2985332466
13.74442242,-0.0006385159492,-0.1054626473,0.2269947588,0.2502986181
13.75444842,0.02935302258,-0.09800635099,0.227114042,0.2490936227
13.76447442,0.08823214531,-0.1093075205,0.274658922,0.3084972754
13.77450042,0.0616302377,-0.08382316198,0.248028363,0.2689659412
13.78452642,0.03339754164,-0.07435158625,0.2655477905,0.2777754187
13.79455242,0.1035068268,-0.09142359216,0.2649513745,0.2987828095
13.80457842,0.074368397,-0.0705753082,0.2663991451,0.2854470829
13.81460342,0.01169501603,-0.06089228254,0.2418537033,0.2496755039
13.82462942,0.05469894826,-0.08886346187,0.2125895584,0.2368185173
13.83465542,0.1041371566,-0.1173367709,0.2215018845,0.2714324041
13.84468142,0.04534632683,-0.147829233,0.2151143861,0.2649225747
13.85470742,-0.006115602851,-0.1555426607,0.2061155212,0.2582915561
13.86473342,0.022352736,-0.1310181957,0.2054618025,0.2447038305
13.87475942,0.009651414156,-0.1588334736,0.1811093187,0.2410846479
13.88478542,-0.03419217825,-0.1386060543,0.1965202403,0.2429011079
13.89481042,-0.04556033492,-0.09215792935,0.1924540865,0.2181912085
13.90483642,-0.05288631141,-0.1009767,0.1760187328,0.2097041968
13.91486242,-0.02922555327,-0.08370778911,0.1774665034,0.1983821735
13.92488842,-0.04897861719,-0.09690586846,0.1526450729,0.1873237053
13.93491442,-0.04284313381,-0.1215086861,0.1303823841,0.1833015575
13.94494042,-0.03820512235,-0.1122927799,0.1087897861,0.1609488035
13.95496642,-0.06306046665,-0.1263665529,0.1082120812,0.177918472
13.96499242,-0.1251999968,-0.154320154,0.06800779581,0.2100352576
13.97501842,-0.09723334908,-0.152463188,0.05341080666,0.1885525448
13.98504342,-0.04891663671,-0.1693344517,0.02733924379,0.1783659949
13.99506942,-0.09326542854,-0.1631862506,0.01709492197,0.1887337514
14.00509542,-0.1543781877,-0.186365856,0.00309902658,0.2420216128
14.01512142,-0.106673094,-0.1710492573,-0.009885302782,0.2018284336
14.02514742,-0.09489212394,-0.1434315787,-0.00496077776,0.1720515686
14.03517342,-0.132810148,-0.1509262839,-0.01176343073,0.2013843511
14.04519942,-0.08825436473,-0.1188257278,-0.01498056422,0.1487709776
14.05522542,-0.07902570426,-0.1171411815,-0.003498971562,0.141348368
14.06525042,-0.1422487235,-0.1054843185,0.01086880445,0.1774253976
14.07527642,-0.1716379988,-0.08807701137,-0.001046651602,0.1929203412
14.08530242,-0.1724361438,-0.1092976533,0.02172240158,0.2053096769
14.09532842,-0.1774349284,-0.1045150329,0.03094463696,0.2082405256
14.10535442,-0.1499594468,-0.08404513691,0.02259013295,0.1733832023
14.11538042,-0.09554408848,-0.07551554762,0.03563877483,0.1268912647
14.12540642,-0.1095353061,-0.07384883534,0.03761630774,0.1373558167
14.13543242,-0.1337065262,-0.06264524125,0.05643264771,0.1580712027
14.14545742,-0.1414149106,-0.02518333655,0.0678440692,0.1588558941
14.15548342,-0.1486748135,0.0122644252,0.07662776113,0.1677093619
14.16550942,-0.1240440023,0.01584873185,0.08577748418,0.1516439039
14.17553542,-0.05660221696,-0.002987086661,0.05997840384,0.08252358802
14.18556142,-0.0390009284,0.008519612476,0.05095615009,0.06473164176
14.19558742,-0.06165947378,0.02976627454,0.0877655375,0.1113135723
14.20561342,-0.06784524322,0.02959948272,0.1007019174,0.1249799287
14.21563942,-0.1057644367,0.05829966366,0.07548989296,0.1424208229
14.22566442,-0.1647891551,0.06981071167,0.09422086358,0.2022537323
14.23569042,-0.1015193582,0.05913150318,0.06249855379,0.1330743551
14.24571642,-0.06788617373,0.03711392228,0.06231611609,0.09934422044
14.25574242,-0.137081539,0.0393527846,0.08786377072,0.1675112898
14.26576842,-0.1851690406,0.04267276056,0.07140736699,0.2029964289
14.27579442,-0.1931352872,0.03931287736,0.0776194489,0.2118289884
14.28582042,-0.1759509051,0.0582009919,0.0696216319,0.1979728468
14.29584642,-0.1725314534,0.05312180802,0.07425379614,0.1951990142
14.30587142,-0.1914097738,0.0804936843,0.07965779741,0.2224012127
14.31589742,-0.1902274668,0.06868625555,0.1005756176,0.2258755093
14.32592342,-0.2387307054,0.07387602489,0.09318708499,0.2667092978
14.33594942,-0.2584896165,0.06222299919,0.08843561928,0.2801953644
14.34597542,-0.2409719431,0.08344429895,0.08467236042,0.2687002736
14.35600142,-0.2209037143,0.05925104219,0.07857956171,0.2418344155
14.36602742,-0.2309199947,0.0390184335,0.1058334339,0.2569964938
14.37605342,-0.2350902289,0.0141459861,0.1050019507,0.257862239
14.38607842,-0.2287828374,0.006774510965,0.1100995533,0.2539869924
14.39610442,-0.2763616312,-0.005654586442,0.1094014049,0.2972816727
14.40613042,-0.2703460157,0.02854365829,0.09208546042,0.2870216728
14.41615642,-0.2089408958,0.0221458542,0.07881228089,0.2244061327
14.42618242,-0.2072568977,0.005957618393,0.09035467546,0.2261744509
14.43620842,-0.1976382279,0.003418099545,0.09902260621,0.2210837603
14.44623442,-0.1607691944,0.001179529577,0.07525483489,0.1775145496
14.45626042,-0.1839189059,-0.01437958237,0.06138758739,0.1944257498
14.46628542,-0.2179935551,-0.003110572547,0.04250574946,0.2221206979
14.47631142,-0.1755778527,0.0011036985,0.01979633331,0.1766937897
14.48633742,-0.1267208576,0.02011847835,0.009456117153,0.1286559252
14.49636342,-0.1407319558,0.01923675478,0.04518260479,0.1490536946
14.50638942,-0.2225473666,0.04148683559,0.08073717515,0.2403476219
14.51641542,-0.2557127738,-0.01676919322,0.0379379046,0.2590550388
14.52644142,-0.1589518797,-0.04414267749,-0.05011064728,0.1724104203
14.53646742,-0.1909162688,-0.05431427456,-0.02046875398,0.1995445615
14.54649342,-0.1725864172,-0.07664888419,-0.03959500551,0.1929478876
14.55651842,-0.02941558778,-0.07189063936,-0.07879474838,0.1106442642
14.56654442,-0.0953628248,-0.04355269343,-0.03103351235,0.109334278
14.57657042,-0.1566708809,-0.03799345315,-0.06278388421,0.1730060216
14.58659642,-0.07277736962,-0.02952668488,-0.04469962478,0.09036828594
14.59662242,-0.0107372421,0.02072107047,-0.0749659733,0.07851463738
14.60664842,-0.03925469756,0.003837491088,-0.05884168228,0.07083785141
14.61667442,-0.0227135092,-0.01512791634,-0.01884673635,0.033165597
14.62670042,0.07362170756,-0.01501195874,-0.02314795732,0.07862151523
14.63672542,0.06128291309,-0.02732787598,0.003764446573,0.06720550052
14.64675142,0.03216845691,-0.02981261373,-0.0233479321,0.04968629077
14.65677742,0.1007983965,-0.02602738213,-0.01227096677,0.1048251782
14.6668045,0.1285574681,-0.0669369879,-0.02684222817,0.1474045052
14.6768305,0.1337082803,-0.06921144515,-0.006699730558,0.1507083765
14.6868565,0.1780781221,-0.07652536176,0.03386941195,0.1967614943
14.6968825,0.2016400623,-0.05340115875,0.06218981624,0.2176648151
14.7069085,0.1738616949,-0.03590957858,0.05484452566,0.1858098727
14.7169335,0.1516177171,-0.04585558277,0.06863578677,0.1726312192
14.7269595,0.2340079093,-0.0105564535,0.09165159702,0.2515375828
14.7369855,0.2755284029,-0.004484266229,0.1079302454,0.2959475415
14.7470115,0.2757400721,-0.02252614249,0.1271593805,0.3044823846
14.7570375,0.2753506476,-0.02512128297,0.1627151477,0.3208196959
14.7670635,0.2481622642,-0.02763975184,0.1705398917,0.3023777769
14.7770895,0.1911782241,-0.03342440229,0.1176260984,0.2269409682
14.7871155,0.2251996636,-0.02249295954,0.1571754956,0.2755448387
14.7971405,0.268052153,-0.02606696047,0.1562025189,0.3113369077
14.8071665,0.253868562,-0.03809647378,0.1557043362,0.3002406175
14.8171925,0.2574909121,-0.02507286072,0.1698569187,0.3094860109
14.8272185,0.2400024748,-0.02676285222,0.1690628668,0.2947875355
14.8372445,0.2187753278,-0.01954545122,0.1873494673,0.2886944606
14.8472705,0.2454485714,-0.02904290088,0.1633384609,0.2962565512
14.8572965,0.2742186266,-0.01694691204,0.1807935508,0.3288911082
14.8673225,0.2681106251,-0.04016781338,0.1827734363,0.3269600734
14.8773475,0.2468869865,-0.04863852851,0.1869425011,0.3134747027
14.8873735,0.1997671992,-0.02669396471,0.2029463303,0.2860187312
14.8973995,0.1788400143,-0.007175227962,0.1877306875,0.2593801181
14.9074255,0.1453378075,-0.0008187929168,0.1861554658,0.2361728312
14.9174515,0.1648178065,-0.02723881558,0.1739768668,0.2411945534
14.9274775,0.1359524417,-0.0387399964,0.1831617097,0.2313699756
14.9375035,0.100499019,-0.04982967943,0.1961939657,0.2259980574
14.9475295,0.1003727192,-0.08271303155,0.1893632483,0.2297271603
14.9575545,0.06282073081,-0.06496899784,0.2015499969,0.2208841691
14.9675805,0.01882277191,-0.06801839389,0.1743628013,0.1881041869
14.9776065,0.0165856272,-0.06427244827,0.1864747238,0.1979364879
14.9876325,0.05551755846,-0.05695549842,0.1723899508,0.189853689
14.9976585,-0.02066347539,-0.07075580444,0.191251899,0.2049650018
15.0076845,-0.02574645996,-0.0750426906,0.201760515,0.2167985033
15.0177105,-0.02528803825,-0.04106653042,0.1556376596,0.1629387182
15.0277365,-0.07737094223,-0.07388413791,0.1597471011,0.192260929
15.0377615,-0.08649552226,-0.1013750416,0.1458178548,0.1975378981
15.0477875,-0.07720663548,-0.1141849023,0.1571333957,0.2090214356
15.0578135,-0.01387836635,-0.07422342259,0.09520319581,0.1215128553
15.0678395,-0.1023391378,-0.08930920243,0.0778428034,0.156553297
15.0778655,-0.227773608,-0.08541934222,0.1066508655,0.2656156765
15.0878915,-0.184512983,-0.0560341965,0.07918767214,0.2084599709
15.0979175,-0.1755392611,-0.0814590596,0.04353836775,0.1983562453
15.1079435,-0.1926107919,-0.07502229843,0.0110138154,0.206998953
15.1179685,-0.2209066379,-0.08038540117,0.0401703624,0.2384852478
15.1279945,-0.1977083945,-0.09038139906,0.01457827806,0.2178759573
15.1380205,-0.2144817173,-0.09737978529,-0.02812277754,0.2372258845
15.1480465,-0.2773603356,-0.106510578,0.0000116944313,0.2971081606
15.1580725,-0.2513261926,-0.09342191465,-0.01674760421,0.2686503145
15.1680985,-0.2426635426,-0.1014476201,-0.02324385166,0.2640406999
15.1781245,-0.2705307877,-0.1281643159,-0.03326714873,0.3011971151
15.1881505,-0.2773001093,-0.1140821741,-0.01019402663,0.3000233511
15.1981755,-0.274797501,-0.1127072379,-0.03072594881,0.2985978432
15.2082015,-0.3291736829,-0.1318471481,-0.03473830819,0.3562944485
15.2182275,-0.3311646599,-0.1316552133,-0.03443775217,0.3580350345
15.2282535,-0.2894453609,-0.1344495611,-0.02725037296,0.3203090449
15.2382795,-0.2677907825,-0.147222694,-0.02449165662,0.3065717959
15.2483055,-0.2518278837,-0.1373311786,-0.04335943838,0.2900985635
15.2583315,-0.3201461667,-0.1551354752,-0.01003031373,0.3558949155
15.2683575,-0.3194649661,-0.1486703185,-0.04474172473,0.3551936796
15.2783835,-0.334205212,-0.1333240452,-0.02832040429,0.3609300071
15.2884085,-0.3139253139,-0.1127353776,-0.04138893127,0.3361122011
15.2984345,-0.2776298922,-0.1230378427,-0.03050492406,0.3052002919
15.3084605,-0.2616991532,-0.1238914631,-0.008674929142,0.2896736022
15.3184865,-0.284092235,-0.1031412296,-0.0221972092,0.3030498759
15.3285125,-0.3079804498,-0.1066296419,-0.01310361028,0.3261802302
15.3385385,-0.2962485963,-0.08358872518,-0.03117617985,0.309390142
15.3485645,-0.2890103281,-0.09312151395,-0.03564579606,0.305727344
15.3585895,-0.266504395,-0.09131085053,-0.03004299859,0.2833105112
15.3686155,-0.2502836341,-0.07181678172,-0.03104169846,0.2622272577
15.3786415,-0.2726802242,-0.07216673758,-0.02317135076,0.2830184697
15.3886675,-0.280709036,-0.06049620677,-0.03769466043,0.2896174051
15.3986935,-0.2760143065,-0.03566911183,-0.0145034337,0.2786871589
15.4087195,-0.2888378352,-0.03987958219,-0.00715816597,0.2916657598
15.4187455,-0.2832519901,-0.02198797937,0.02000800252,0.2848077971
15.4287715,-0.1836557811,-0.02567998443,-0.006628403664,0.1855608883
15.4387975,-0.1626443964,-0.06005722705,-0.0185859551,0.1743717521
15.4488225,-0.2076451528,-0.04247801173,0.01844680051,0.2127467401
15.4588485,-0.2782432652,-0.03407669574,0.006100984812,0.2803885836
15.4688745,-0.2519898516,-0.03028050061,0.01410816649,0.2541944814
15.4789005,-0.1517925489,-0.01382318325,-0.01208619019,0.1528990984
15.4889265,-0.2044221675,-0.05221099455,0.05502346873,0.2180412636
15.4989525,-0.1672432315,-0.02261092711,0.05195017219,0.1765796503
15.5089785,-0.1116484898,0.0024038269,0.06672842046,0.1300916821
15.5190045,-0.1600839007,-0.01948533453,0.0672862494,0.174739729
15.5290295,-0.2007296509,-0.04069154117,0.0780369401,0.2191756334
15.5390555,-0.1850936115,-0.01598610487,0.09115575314,0.2069409865
15.5490815,-0.08653060555,-0.0116691421,0.06111510257,0.106577532
15.5591075,-0.0815131098,-0.03782666132,0.09890448332,0.1336313593
15.5691335,-0.09565693974,-0.0382711228,0.1077641845,0.1490907389
15.5791595,-0.09048800111,-0.02520756595,0.09791864276,0.1356892049
15.5891855,-0.08083073974,-0.0122013849,0.07396025678,0.1102388401
15.5992115,-0.0787988323,0.006696962267,0.08807076216,0.1183662301
15.6092365,-0.07196986914,-0.01345919408,0.111352036,0.1332669797
15.6192625,0.003866763711,-0.01222831864,0.07696923852,0.07803042558
15.6292885,0.02761698425,0.002138911486,0.09937927723,0.1031674052
15.6393145,0.03401091456,0.01192525014,0.09615512252,0.1026876891
15.6493405,0.03441905022,0.02111118939,0.09317187309,0.1015448239
15.6593665,0.03573058069,-0.01312922839,0.1160450113,0.1221290124
15.66939225,0.06862760067,0.01626147218,0.1241913521,0.1428204292
15.67941825,0.08476416171,0.02268416349,0.1138827201,0.1437665062
15.68944325,0.1416248256,0.0174969523,0.119957968,0.186423305
15.69946925,0.1453541797,0.03836997729,0.1254882646,0.1958249148
15.70949525,0.1591144323,0.05750316326,0.1171980913,0.2058140155
15.71952125,0.1682431054,0.04552177984,0.1371967292,0.2218127982
15.72954725,0.182316184,0.0401098894,0.1490876269,0.2389039864
15.73957325,0.231874845,0.04541119438,0.1780991721,0.2958841588
15.74959925,0.2187168556,0.04061486956,0.1753170669,0.2832361286
15.75962525,0.2449351859,0.05669595513,0.1585987079,0.2972561636
15.76965025,0.21951617,0.05518455952,0.176106441,0.2867859186
15.77967625,0.2297283322,0.0526403629,0.1596558845,0.2846684314
15.78970225,0.247730155,0.06698683541,0.175304203,0.3107877562
15.79972825,0.2952218252,0.06611278631,0.1840200627,0.354104801
15.80975425,0.2773071259,0.03653380539,0.191230849,0.3388262071
15.81978025,0.2426331371,0.04096986864,0.1777413225,0.3035479321
15.82980625,0.2438856107,0.04229886767,0.1661030245,0.2980932741
15.83983225,0.1899105477,0.02790090311,0.1493870135,0.2432302538
15.84985725,0.1995537758,0.02298430838,0.1263536616,0.2373083135
15.85988325,0.1864466572,0.02874275599,0.1366611334,0.2329479928
15.86990925,0.1631659681,-0.0008139324188,0.1249292799,0.2055021182
15.87993525,0.1277593231,0.007475372851,0.1281276977,0.1810939888
15.88996125,0.1209438086,0.009684122019,0.0955119288,0.1544141042
15.89998725,0.1181751519,0.009463060722,0.1013182139,0.1559496602
15.91001325,0.07049987912,0.008643573448,0.1028420075,0.1249856905
15.92003925,0.09931554258,0.004389395155,0.06254298806,0.117449858
15.93006425,0.05898144901,0.008968970999,0.1025823728,0.1186692756
15.94009025,0.0680399555,0.01288507059,0.08271588206,0.1078766784
15.95011625,0.04791033089,-0.003382541165,0.08018403769,0.09346829029
15.96014225,0.01386140943,0.005986050479,0.06657873631,0.06826931668
15.97016825,-0.01195229352,0.007629702799,0.07361644506,0.07496966499
15.98019425,-0.0424063468,-0.02139799532,0.09535406311,0.1065296663
15.99022025,-0.001611492634,0.001328414306,0.07903799255,0.07906557949
16.00024625,-0.03101830959,-0.01166395269,0.05851893425,0.06725064303
16.01027125,-0.1023403072,0.01750590585,0.09500439961,0.1407331914
16.02029725,-0.104957521,0.03196036913,0.08784740766,0.1405514619
16.03032325,-0.09305083573,0.0103164253,0.07197455605,0.1180898953
16.04034925,-0.09117563367,0.03036828194,0.085223159,0.1284453796
16.05037525,-0.1512733161,0.02689657073,0.09386417429,0.1800486737
16.06040125,-0.17948964,0.004860498011,0.06499999722,0.1909585163
16.07042725,-0.1732828206,0.01755392611,0.05888146162,0.1838534818
16.08045325,-0.2362245888,0.0317447165,0.07971976876,0.2513265304
16.09047825,-0.2674381953,0.007945086993,0.04775304079,0.2717842263
16.10050425,-0.244769125,0.01756927505,0.03705966194,0.2481814306
16.11053025,-0.2515875632,0.04159296256,0.02508456429,0.2562333152
16.12055625,-0.2886518937,0.01108654015,0.04327642162,0.2920884726
16.13058225,-0.301467821,0.03502281178,0.01663298965,0.3039508197
16.14060825,-0.3434707099,0.02456824601,-0.008576695919,0.344455058
16.15063425,-0.3492571145,0.01034186069,-0.03145100355,0.350822821
16.16066025,-0.3647767943,0.02030007094,-0.02465536952,0.3661722133
16.17068525,-0.3515527314,0.02579755001,-0.05708987474,0.3570911513
16.18071125,-0.3592961991,0.005783846453,-0.06044968029,0.3643917883
16.19073725,-0.3799210829,-0.0001978186145,-0.07373689314,0.3870105912
16.20076325,-0.4036917686,0.01112472977,-0.08377539754,0.4124428699
16.21078925,-0.4189354599,-0.004164167717,-0.09429804683,0.4294372847
16.22081525,-0.4008014899,0.0003706403822,-0.1230230784,0.4192572594
16.23084125,-0.37279742,-0.02043916158,-0.1044172382,0.3876836795
16.24086725,-0.3242959356,-0.008972333148,-0.1325949705,0.3504708017
16.25089225,-0.3489904815,-0.04061589282,-0.1049037266,0.3666726043
16.26091825,-0.352141546,-0.03866705239,-0.123135345,0.3750481603
16.27094425,-0.3599376386,-0.03158600114,-0.1302221704,0.3840710778
16.28097025,-0.382258215,-0.0412448705,-0.124399513,0.4041011273
16.29099625,-0.3366236204,-0.02117156189,-0.104010272,0.3529615185
16.30102225,-0.2932366955,-0.03352596112,-0.09266199589,0.3093509256
16.31104825,-0.2568950808,-0.04891575962,-0.09222696304,0.2772970371
16.32107425,-0.2793752861,-0.06435211658,-0.05453698039,0.2918321909
16.33110025,-0.2439277107,-0.05318810083,-0.03947455287,0.2527606425
16.34112525,-0.2580317795,-0.06939778861,-0.03407991399,0.2693657232
16.35115125,-0.2490855396,-0.06633914664,0.0005356026697,0.2577688408
16.36117725,-0.1962805045,-0.04204034764,0.02068744669,0.2017954353
16.37120325,-0.1662351716,-0.04121176064,0.03548324347,0.1749045512
16.38122925,-0.1522053623,-0.05702369157,0.05510065198,0.1716224215
16.39125525,-0.125006454,-0.04477286115,0.07498586297,0.1524929581
16.40128125,-0.1008019048,-0.05228682563,0.08614235044,0.1425322444
16.41130625,-0.08288194299,-0.05049067061,0.1080085981,0.1452053083
16.42133225,-0.071844154,-0.05609716371,0.1220571184,0.1523365169
16.43135825,-0.06963332176,-0.06253684849,0.1452623785,0.1728028226
16.44138425,-0.03599604428,-0.04606940813,0.1311857915,0.143623875
16.45141025,-0.03408692837,-0.05122815069,0.1698124981,0.1806170718
16.46143625,-0.0336729455,-0.02608885098,0.1947976506,0.1994006521
16.47146225,-0.02921619773,-0.01338515371,0.1874453616,0.1901802096
16.48148825,-0.01218267381,-0.02023089107,0.1909384882,0.1923933803
16.49151325,0.03329638481,-0.03250748578,0.2210212433,0.2258667215
16.50153925,0.05857623696,-0.01601135753,0.2211931515,0.2293773079
16.51156525,0.05077839017,-0.04961249191,0.2253107607,0.2362303604
16.52159125,0.06573205948,-0.02695518907,0.2272917974,0.2381361943
16.53161725,0.06976020634,0.001393683851,0.2197149754,0.2305278706
16.54164325,0.07019816279,-0.0146648534,0.2367502534,0.2473732453
16.55166925,0.102216931,-0.006563974656,0.2417636561,0.2625662815
16.56169525,0.1237650901,-0.003558323085,0.2415695286,0.271452199
16.57172025,0.1183757114,-0.006998934411,0.2550216329,0.2812433597
16.58174625,0.1276628441,-0.0004723088443,0.2542743587,0.2845232404
16.59177225,0.1267787451,0.003236580044,0.2685240233,0.296965447
16.60179825,0.1556873792,-0.02399689995,0.2573722136,0.301752991
16.61182425,0.1863963711,0.01186264839,0.2530172074,0.3144869422
16.62185025,0.1936100811,0.02237762321,0.2768165445,0.3385454487
16.63187625,0.2141531038,0.01802619841,0.2868293166,0.3584097551
16.64190225,0.2185373461,0.03041392677,0.2967812777,0.3698144202
16.65192825,0.2128971219,0.03299561866,0.287870121,0.3595595944
16.66195325,0.2075627071,0.0482543299,0.2849324799,0.3558051093
16.67197925,0.198639856,0.03333731532,0.2844109082,0.3485093022
16.68200525,0.2126269805,0.02793222226,0.2815118587,0.3538917468
16.69203125,0.1981790954,0.02485099543,0.299621855,0.3600913521
16.70205725,0.2004934233,0.01497460965,0.2852423823,0.3489771746
16.71208325,0.2064067125,0.02358408652,0.2831642818,0.351200727
16.72210925,0.1635197246,0.007578576207,0.268222307,0.3142281673
16.73213525,0.1291685021,-0.004522200041,0.2894360054,0.3169828914
16.74216025,0.1458634722,0.001653958037,0.2660869038,0.3034487246
16.75218625,0.1493881738,-0.02165004686,0.2622534692,0.3025928504
16.76221225,0.1246176142,-0.02933475003,0.231207093,0.2642854464
16.77223825,0.1281352991,-0.02258508973,0.2229180801,0.2581108513
16.78226425,0.1300081623,-0.02348702274,0.2041871095,0.2431997906
16.79229025,0.1040319067,-0.03921716575,0.2060289824,0.2341122921
16.80231625,0.117572304,-0.04840018138,0.1810028994,0.2211964598
16.81234125,0.1327545995,-0.05886538178,0.1500173342,0.2087920435
16.82236725,0.1464370841,-0.04998444792,0.1515200778,0.2165654603
16.83239325,0.1417061019,-0.05844478425,0.1228347981,0.1964301396
16.84241925,0.1291842896,-0.05778412197,0.1192235577,0.1850455137
16.85244525,0.1235440654,-0.05271856941,0.08527463277,0.1591042006
16.86247125,0.1262776387,-0.04139693465,0.08569445372,0.1581242791
16.87249725,0.1134418309,-0.05237986945,0.07477651438,0.145616712
16.88252325,0.1014988929,-0.02901666149,0.05657766779,0.1197707159
16.89254825,0.07847489655,-0.03373536453,0.04387049873,0.09602606348
16.90257425,0.07370766163,-0.0495805515,0.02497696638,0.0922762121
16.91260025,0.07147987247,-0.05084735077,0.01806789637,0.08956156613
16.92262625,0.05502697706,-0.04946057394,0.01840467772,0.07624335211
16.93265225,0.03812033772,-0.06463800889,-0.007769780159,0.07544270558
16.94267825,0.008933376074,-0.06776034895,0.008918155041,0.06892607335
16.95270425,0.005187649727,-0.06374269053,-0.00255523324,0.06400446487
16.96273025,-0.01083956838,-0.08042355426,0.005482349396,0.08133572694
16.97275525,-0.04423711002,-0.06977719981,-0.002708412018,0.08266265791
16.98278125,-0.05743193686,-0.05590402286,-0.01285099229,0.08117164004
16.99280725,-0.07976771593,-0.05672727428,0.002314346228,0.09790928634
17.00283325,-0.09956463397,-0.07227513034,-0.02400282025,0.1253512911
17.01285925,-0.1178658342,-0.06074102238,-0.009679499064,0.1329493113
17.02288525,-0.1101305526,-0.06655651689,-0.02654635906,0.1313895648
17.03291125,-0.1399688941,-0.06997604169,-0.0272035861,0.1588331604
17.04293725,-0.1274511749,-0.0718184628,-0.03029210368,0.1493964696
17.05296325,-0.1278154564,-0.06521498289,-0.04753552437,0.1511602162
17.06298825,-0.1528766227,-0.06365169324,-0.04708294988,0.1721615636
17.07301425,-0.1643272251,-0.0622441588,-0.05257465482,0.1834171926
17.08304025,-0.1600675285,-0.06604945365,-0.0653531599,0.1850815483
17.09306625,-0.1680817223,-0.05092679981,-0.04937388897,0.1824357016
17.10309225,-0.1575444549,-0.05135847051,-0.05877972007,0.1758209409
17.11311825,-0.163176493,-0.06585912678,-0.07436136207,0.1910329936
17.12314425,-0.1825752157,-0.04999248784,-0.07030688446,0.2019307214
17.13316925,-0.1913495475,-0.03329134159,-0.08849057397,0.2134327633
17.14319525,-0.2094039953,-0.04467546847,-0.08895484289,0.2318596446
17.15322125,-0.2027586347,-0.018087046,-0.106122268,0.2295651127
17.16324725,-0.2024060476,-0.01676502708,-0.09941786885,0.2261264842
17.17327325,-0.2219579673,0.004265909269,-0.07868128499,0.2355297897
17.18329925,-0.2157575798,0.0007260414585,-0.08042024693,0.2302591507
17.19332525,-0.2412912011,0.01694983564,-0.07801939845,0.2541569735
17.20335125,-0.2506607795,0.01354131091,-0.07957941731,0.2633383321
17.21337625,-0.2567313588,0.03073482927,-0.07394388,0.2689299494
17.22340225,-0.2400474983,0.03435246505,-0.07969987909,0.2552547043
17.23342825,-0.2125807875,0.0461539004,-0.06686290185,0.2275772866
17.24345425,-0.2232817769,0.04246796183,-0.05689105114,0.2342965458
17.25348025,-0.1926692641,0.04745676968,-0.05150110602,0.2050023274
17.26350625,-0.2121966255,0.05766673911,-0.05615081191,0.2269488364
17.27353225,-0.2243828076,0.0579676149,-0.03978328586,0.23513953
17.28355825,-0.1777419072,0.06782105036,-0.0251710848,0.1918996195
17.29358325,-0.1788464463,0.07199238092,-0.01531968674,0.1934002251
17.30360925,-0.1803918654,0.07513701349,-0.007848114576,0.195571953
17.31363525,-0.1693622625,0.07309739504,-0.003600715399,0.1844986999
17.32366125,-0.2014354098,0.05968030091,-0.006533697043,0.2101919404
17.33368725,-0.1818571776,0.0708403698,0.006376973391,0.1952717512
17.34371325,-0.1820355177,0.05093498591,0.002736506062,0.1890470602
17.35373925,-0.1777202725,0.05097496625,-0.002449965086,0.1849025278
17.36376525,-0.179987238,0.07386253975,-0.004973641634,0.1946171055
17.37379025,-0.1919792926,0.06748015769,0.006951169968,0.2036122276
17.38381625,-0.1625052327,0.07280624025,0.0008478554059,0.1780713849
17.39384225,-0.1737400728,0.07785626113,0.01312115192,0.1908386097
17.40386825,-0.1644535249,0.07301758055,0.01210958362,0.180341817
17.41389425,-0.1324119526,0.05070738304,-0.01322523236,0.142404602
17.42392025,-0.1464698285,0.04000650331,0.01090388775,0.1522262321
17.43394625,-0.1108252019,0.04392771922,-0.006409708662,0.1193857372
17.44397225,-0.0799729532,0.05605985116,-0.003845119877,0.09774029416
17.45399725,-0.06617878675,0.06517726835,0.01191663464,0.09364675278
17.46402325,-0.08007235587,0.0369761838,0.00221141696,0.08822534051
17.47404925,-0.048756423,0.03008147601,0.006634250879,0.0576723267
17.48407525,-0.0445294708,0.05279220778,0.01269899209,0.07022218576
17.49410125,-0.06649278224,0.04357235469,0.00411060174,0.07960362573
17.50412725,-0.04549309194,0.02019701377,0.01796148618,0.05291649804
17.51415325,-0.004434528351,0.02359176099,-0.001078226566,0.02402912402
17.52417925,-0.01980744302,0.02026813053,0.01691717346,0.03300488861
17.53420425,-0.004042764902,0.01997079961,0.01143717209,0.02336633669
17.54423025,0.01082787395,0.008220490851,0.01919174035,0.02351897578
17.55425625,-0.006031987667,0.008990167156,0.03326597929,0.03498332973
17.56428225,-0.03427520871,-0.008079061322,0.02688432813,0.0443038177
17.57430825,0.0115804106,-0.001122738495,0.02570201199,0.02821276079
17.58433425,0.01672420621,-0.009219231829,0.04424938004,0.04819440779
17.59436025,-0.01136289418,-0.01733063556,0.03262395501,0.03864956318
17.60438625,-0.008763222098,-0.04654062063,0.03894949118,0.06131791168
17.61441125,0.01629034281,-0.07993951444,0.04078082085,0.09120732748
17.62443725,0.001377019286,-0.08236651093,0.03258886258,0.08858991065
17.63446325,-0.01234288752,-0.09383798059,0.02910158317,0.09901926892
17.64448925,0.01959460437,-0.09676184423,0.0437359945,0.107979814
17.65451525,0.02323858917,-0.1094492789,0.01746328513,0.1132437328
17.66454125,0.007117230892,-0.1045968939,0.02533832431,0.107857294
17.67456687,0.03305314064,-0.1120115288,0.03806888223,0.1228345737
17.68459287,0.01737792492,-0.122687229,0.05316172441,0.1348344072
17.69461788,0.006792125702,-0.1321597183,0.0400230217,0.1382539923
17.70464388,0.01760947466,-0.1421373706,0.06131975055,0.1557987084
